<Bundle xmlns="http://hl7.org/fhir">
    <id value="2-1-ConsolidatedMedicationCard" />
    <identifier>
        <system value="urn:ietf:rfc:3986" />
        <value value="urn:uuid:b943a4a5-1148-4516-92d3-f428131a2c5c" />
    </identifier>
    <type value="document" />
    <timestamp value="2023-02-14T08:02:10.1221514+00:00" />
    <entry>
        <fullUrl value="https://int.documedis.hcisolutions.ch/CE/mda/2020-01/Composition/b943a4a5-1148-4516-92d3-f428131a2c5c" />
        <resource>
            <Composition>
                <id value="b943a4a5-1148-4516-92d3-f428131a2c5c" />
                <identifier>
                    <system value="urn:ietf:rfc:3986" />
                    <value value="urn:uuid:b943a4a5-1148-4516-92d3-f428131a2c5c" />
                </identifier>
                <status value="final" />
                <type>
                    <coding>
                        <system value="http://snomed.info/sct" />
                        <code value="721912009" />
                    </coding>
                </type>
                <subject>
                    <reference value="Patient/800b0673-b686-47c4-9ae0-25aaebbbc8de" />
                </subject>
                <date value="2023-02-14T08:02:10.122+00:00" />
                <author>
                    <reference value="Device/Analyzer" />
                </author>
                <title value="Medikationsplan" />
                <section>
                    <entry>
                        <reference value="MedicationStatement/34eaf03d-f986-473d-abdb-c317dcff8008" />
                    </entry>
                </section>
            </Composition>
        </resource>
    </entry>
    <entry>
        <fullUrl value="https://int.documedis.hcisolutions.ch/CE/mda/2020-01/Device/Analyzer" />
        <resource>
            <Device>
                <id value="Analyzer" />
                <deviceName>
                    <name value="Documedis Medical Data Analyzer CE" />
                    <type value="user-friendly-name" />
                </deviceName>
                <version>
                    <value value="0.0.0.1" />
                </version>
            </Device>
        </resource>
    </entry>
    <entry>
        <fullUrl value="https://int.documedis.hcisolutions.ch/CE/mda/2020-01/Patient/800b0673-b686-47c4-9ae0-25aaebbbc8de" />
        <resource>
            <Patient>
                <id value="800b0673-b686-47c4-9ae0-25aaebbbc8de" />
                <identifier>
                    <type>
                        <coding>
                            <system value="http://terminology.hl7.org/CodeSystem/v2-0203" />
                            <code value="MR" />
                        </coding>
                    </type>
                    <system value="urn:oid:2.999.1" />
                    <value value="11111111" />
                </identifier>
                <name>
                    <family value="Wegmüller" />
                    <given value="Monika" />
                </name>
                <gender value="female" />
                <birthDate value="1943-05-15" />
                <address>
                    <line value="Wiesenstr. 12" />
                    <city value="Zürich" />
                    <postalCode value="8003" />
                    <country value="CH" />
                </address>
            </Patient>
        </resource>
    </entry>
    <entry>
        <fullUrl value="https://int.documedis.hcisolutions.ch/CE/mda/2020-01/PractitionerRole/9bec5b06-13a3-4ae4-85aa-52d52e68ddea" />
        <resource>
            <PractitionerRole>
                <id value="9bec5b06-13a3-4ae4-85aa-52d52e68ddea" />
                <practitioner>
                    <reference value="Practitioner/742138be-f6ee-4794-b03d-0fdea6e31a14" />
                </practitioner>
                <organization>
                    <reference value="Organization/25aa83b2-c422-44d6-87c6-fe1f5b58ae6a" />
                </organization>
            </PractitionerRole>
        </resource>
    </entry>
    <entry>
        <fullUrl value="https://int.documedis.hcisolutions.ch/CE/mda/2020-01/Practitioner/742138be-f6ee-4794-b03d-0fdea6e31a14" />
        <resource>
            <Practitioner>
                <id value="742138be-f6ee-4794-b03d-0fdea6e31a14" />
                <identifier>
                    <system value="urn:oid:2.51.1.3" />
                    <value value="7601000234438" />
                </identifier>
                <name>
                    <family value="Hausarzt" />
                    <given value="Familien" />
                </name>
            </Practitioner>
        </resource>
    </entry>
    <entry>
        <fullUrl value="https://int.documedis.hcisolutions.ch/CE/mda/2020-01/Organization/25aa83b2-c422-44d6-87c6-fe1f5b58ae6a" />
        <resource>
            <Organization>
                <id value="25aa83b2-c422-44d6-87c6-fe1f5b58ae6a" />
                <identifier>
                    <system value="urn:oid:2.51.1.3" />
                    <value value="7601000234438" />
                </identifier>
                <name value="Hausarzt" />
                <address>
                    <line value="Krankenstrasse 2" />
                    <city value="Zürich" />
                    <postalCode value="8005" />
                    <country value="CH" />
                </address>
            </Organization>
        </resource>
    </entry>
    <entry>
        <fullUrl value="https://int.documedis.hcisolutions.ch/CE/mda/2020-01/MedicationStatement/39aacf9a-77c0-4ced-87d9-8193900a8246" />
        <resource>
            <MedicationStatement>
                <id value="39aacf9a-77c0-4ced-87d9-8193900a8246" />
                <contained>
                    <Medication>
                        <id value="med" />
                        <code>
                            <coding>
                                <system value="urn:oid:2.51.1.1" />
                                <code value="7680538751228" />
                                <display value="Triatec Tabl 2.5 mg 20 Stk" />
                            </coding>
                            <text value="TRIATEC Tabl 2.5 mg" />
                        </code>
                        <form>
                            <coding>
                                <system value="urn:oid:0.4.0.127.0.16.1.1.2.1" />
                                <code value="10219000" />
                                <display value="Tablet" />
                            </coding>
                        </form>
                        <amount>
                            <numerator>
                                <value value="20" />
                                <unit value="Tablet (unit of presentation)" />
                                <system value="http://snomed.info/sct" />
                                <code value="732936001" />
                            </numerator>
                            <denominator>
                                <value value="1" />
                                <unit value="Package" />
                                <system value="http://unitsofmeasure.org" />
                                <code value="{Package}" />
                            </denominator>
                        </amount>
                        <ingredient>
                            <itemCodeableConcept>
                                <coding>
                                    <system value="http://snomed.info/sct" />
                                    <code value="386872004" />
                                    <display value="Ramipril (substance)" />
                                </coding>
                                <text value="Ramipril" />
                            </itemCodeableConcept>
                            <strength>
                                <numerator>
                                    <value value="2.5" />
                                    <unit value="milligram" />
                                    <system value="http://unitsofmeasure.org" />
                                    <code value="mg" />
                                </numerator>
                                <denominator>
                                    <value value="1" />
                                    <unit value="Tablet (unit of presentation)" />
                                    <system value="http://snomed.info/sct" />
                                    <code value="732936001" />
                                </denominator>
                            </strength>
                        </ingredient>
                    </Medication>
                </contained>
                <extension url="http://hcisolutions.ch/ig/analyzer/StructureDefinition/infoinputdocument">
                    <extension url="http://hcisolutions.ch/ig/analyzer/StructureDefinition/inputdocumentsource">
                        <valueString value="EPD" />
                    </extension>
                    <extension url="http://hcisolutions.ch/ig/analyzer/StructureDefinition/inputdocumenttype">
                        <valueCodeableConcept>
                            <coding>
                                <system value="http://loinc.org" />
                                <code value="77603-9" />
                            </coding>
                        </valueCodeableConcept>
                    </extension>
                    <extension url="http://hcisolutions.ch/ig/analyzer/StructureDefinition/inputdocumentdate">
                        <valueDateTime value="2011-11-29T11:00:00+01:00" />
                    </extension>
                    <extension url="http://hcisolutions.ch/ig/analyzer/StructureDefinition/parentdocumentid">
                        <valueIdentifier>
                            <system value="urn:ietf:rfc:3986" />
                            <value value="urn:uuid:c9f758a1-296c-4710-84d4-e181db8c7478" />
                        </valueIdentifier>
                    </extension>
                </extension>
                <identifier>
                    <system value="urn:ietf:rfc:3986" />
                    <value value="urn:uuid:c9f758a1-296c-4710-84d4-e181db8c7478" />
                </identifier>
                <status value="active" />
                <category>
                    <coding>
                        <system value="http://www.whocc.no/atc" />
                        <code value="C" />
                        <display value="Kardiovaskuläres System" />
                    </coding>
                </category>
                <medicationReference>
                    <reference value="#med" />
                </medicationReference>
                <subject>
                    <reference value="Patient/800b0673-b686-47c4-9ae0-25aaebbbc8de" />
                </subject>
                <informationSource>
                    <reference value="PractitionerRole/9bec5b06-13a3-4ae4-85aa-52d52e68ddea" />
                </informationSource>
                <reasonCode>
                    <text value="Bluthochdruck" />
                </reasonCode>
                <dosage>
                    <patientInstruction value="-" />
                    <timing>
                        <repeat>
                            <boundsPeriod>
                                <start value="2011-11-29" />
                            </boundsPeriod>
                            <when value="MORN" />
                        </repeat>
                    </timing>
                    <route>
                        <coding>
                            <system value="urn:oid:0.4.0.127.0.16.1.1.2.1" />
                            <code value="20053000" />
                            <display value="Oral use" />
                        </coding>
                    </route>
                    <doseAndRate>
                        <doseQuantity>
                            <value value="0.5" />
                            <unit value="Tablet (unit of presentation)" />
                            <system value="http://snomed.info/sct" />
                            <code value="732936001" />
                        </doseQuantity>
                    </doseAndRate>
                </dosage>
            </MedicationStatement>
        </resource>
    </entry>
    <entry>
        <fullUrl value="https://int.documedis.hcisolutions.ch/CE/mda/2020-01/MedicationDispense/d5510434-7595-4e2f-af12-759a5eb6b3b3" />
        <resource>
            <MedicationDispense>
                <id value="d5510434-7595-4e2f-af12-759a5eb6b3b3" />
                <contained>
                    <Medication>
                        <id value="med" />
                        <code>
                            <coding>
                                <system value="urn:oid:2.51.1.1" />
                                <code value="7680538751228" />
                                <display value="Triatec Tabl 2.5 mg 20 Stk" />
                            </coding>
                            <text value="TRIATEC Tabl 2.5 mg" />
                        </code>
                        <form>
                            <coding>
                                <system value="urn:oid:0.4.0.127.0.16.1.1.2.1" />
                                <code value="10219000" />
                                <display value="Tablet" />
                            </coding>
                        </form>
                        <amount>
                            <numerator>
                                <value value="20" />
                                <unit value="Tablet (unit of presentation)" />
                                <system value="http://snomed.info/sct" />
                                <code value="732936001" />
                            </numerator>
                            <denominator>
                                <value value="1" />
                                <unit value="Package" />
                                <system value="http://unitsofmeasure.org" />
                                <code value="{Package}" />
                            </denominator>
                        </amount>
                        <ingredient>
                            <itemCodeableConcept>
                                <coding>
                                    <system value="http://snomed.info/sct" />
                                    <code value="386872004" />
                                    <display value="Ramipril (substance)" />
                                </coding>
                                <text value="Ramipril" />
                            </itemCodeableConcept>
                            <strength>
                                <numerator>
                                    <value value="2.5" />
                                    <unit value="milligram" />
                                    <system value="http://unitsofmeasure.org" />
                                    <code value="mg" />
                                </numerator>
                                <denominator>
                                    <value value="1" />
                                    <unit value="Tablet (unit of presentation)" />
                                    <system value="http://snomed.info/sct" />
                                    <code value="732936001" />
                                </denominator>
                            </strength>
                        </ingredient>
                    </Medication>
                </contained>
                <extension url="http://hcisolutions.ch/ig/analyzer/StructureDefinition/infoinputdocument">
                    <extension url="http://hcisolutions.ch/ig/analyzer/StructureDefinition/inputdocumentsource">
                        <valueString value="EPD" />
                    </extension>
                    <extension url="http://hcisolutions.ch/ig/analyzer/StructureDefinition/inputdocumenttype">
                        <valueCodeableConcept>
                            <coding>
                                <system value="http://loinc.org" />
                                <code value="60593-1" />
                            </coding>
                        </valueCodeableConcept>
                    </extension>
                    <extension url="http://hcisolutions.ch/ig/analyzer/StructureDefinition/inputdocumentdate">
                        <valueDateTime value="2011-11-29T11:01:00+01:00" />
                    </extension>
                    <extension url="http://hcisolutions.ch/ig/analyzer/StructureDefinition/parentdocumentid">
                        <valueIdentifier>
                            <system value="urn:ietf:rfc:3986" />
                            <value value="urn:uuid:488bd23a-20c6-11e6-b67b-9e71128cae77" />
                        </valueIdentifier>
                    </extension>
                </extension>
                <extension url="http://fhir.ch/ig/ch-emed/StructureDefinition/ch-emed-ext-treatmentplan">
                    <extension url="id">
                        <valueIdentifier>
                            <system value="urn:ietf:rfc:3986" />
                            <value value="urn:uuid:c9f758a1-296c-4710-84d4-e181db8c7478" />
                        </valueIdentifier>
                    </extension>
                    <extension url="externalDocumentId">
                        <valueIdentifier>
                            <system value="urn:ietf:rfc:3986" />
                            <value value="urn:uuid:c9f758a1-296c-4710-84d4-e181db8c7478" />
                        </valueIdentifier>
                    </extension>
                </extension>
                <identifier>
                    <system value="urn:ietf:rfc:3986" />
                    <value value="urn:uuid:488bd23a-20c6-11e6-b67b-9e71128cae77" />
                </identifier>
                <status value="completed" />
                <category>
                    <coding>
                        <system value="http://www.whocc.no/atc" />
                        <code value="C" />
                        <display value="Kardiovaskuläres System" />
                    </coding>
                </category>
                <medicationReference>
                    <reference value="#med" />
                </medicationReference>
                <subject>
                    <reference value="Patient/800b0673-b686-47c4-9ae0-25aaebbbc8de" />
                </subject>
                <performer>
                    <actor>
                        <reference value="PractitionerRole/9bec5b06-13a3-4ae4-85aa-52d52e68ddea" />
                    </actor>
                </performer>
                <quantity>
                    <value value="1" />
                </quantity>
                <dosageInstruction>
                    <patientInstruction value="-" />
                    <timing>
                        <repeat>
                            <boundsPeriod>
                                <start value="2011-11-29" />
                            </boundsPeriod>
                            <when value="MORN" />
                        </repeat>
                    </timing>
                    <route>
                        <coding>
                            <system value="urn:oid:0.4.0.127.0.16.1.1.2.1" />
                            <code value="20053000" />
                            <display value="Oral use" />
                        </coding>
                    </route>
                    <doseAndRate>
                        <doseQuantity>
                            <value value="0.5" />
                            <unit value="Tablet (unit of presentation)" />
                            <system value="http://snomed.info/sct" />
                            <code value="732936001" />
                        </doseQuantity>
                    </doseAndRate>
                </dosageInstruction>
            </MedicationDispense>
        </resource>
    </entry>
    <entry>
        <fullUrl value="https://int.documedis.hcisolutions.ch/CE/mda/2020-01/MedicationStatement/34eaf03d-f986-473d-abdb-c317dcff8008" />
        <resource>
            <MedicationStatement>
                <id value="34eaf03d-f986-473d-abdb-c317dcff8008" />
                <contained>
                    <Medication>
                        <id value="med" />
                        <code>
                            <coding>
                                <system value="urn:oid:2.51.1.1" />
                                <code value="7680538751228" />
                                <display value="Triatec Tabl 2.5 mg 20 Stk" />
                            </coding>
                            <text value="TRIATEC Tabl 2.5 mg" />
                        </code>
                        <form>
                            <coding>
                                <system value="urn:oid:0.4.0.127.0.16.1.1.2.1" />
                                <code value="10219000" />
                                <display value="Tablet" />
                            </coding>
                        </form>
                        <amount>
                            <numerator>
                                <value value="20" />
                                <unit value="Tablet (unit of presentation)" />
                                <system value="http://snomed.info/sct" />
                                <code value="732936001" />
                            </numerator>
                            <denominator>
                                <value value="1" />
                                <unit value="Package" />
                                <system value="http://unitsofmeasure.org" />
                                <code value="{Package}" />
                            </denominator>
                        </amount>
                        <ingredient>
                            <itemCodeableConcept>
                                <coding>
                                    <system value="http://snomed.info/sct" />
                                    <code value="386872004" />
                                    <display value="Ramipril (substance)" />
                                </coding>
                                <text value="Ramipril" />
                            </itemCodeableConcept>
                            <strength>
                                <numerator>
                                    <value value="2.5" />
                                    <unit value="milligram" />
                                    <system value="http://unitsofmeasure.org" />
                                    <code value="mg" />
                                </numerator>
                                <denominator>
                                    <value value="1" />
                                    <unit value="Tablet (unit of presentation)" />
                                    <system value="http://snomed.info/sct" />
                                    <code value="732936001" />
                                </denominator>
                            </strength>
                        </ingredient>
                    </Medication>
                </contained>
                <identifier>
                    <system value="urn:ietf:rfc:3986" />
                    <value value="urn:uuid:34eaf03d-f986-473d-abdb-c317dcff8008" />
                </identifier>
                <status value="unknown" />
                <category>
                    <coding>
                        <system value="http://www.whocc.no/atc" />
                        <code value="C" />
                        <display value="Kardiovaskuläres System" />
                    </coding>
                </category>
                <medicationReference>
                    <reference value="#med" />
                </medicationReference>
                <subject>
                    <reference value="Patient/800b0673-b686-47c4-9ae0-25aaebbbc8de" />
                </subject>
                <informationSource>
                    <reference value="PractitionerRole/9bec5b06-13a3-4ae4-85aa-52d52e68ddea" />
                </informationSource>
                <derivedFrom>
                    <reference value="MedicationStatement/39aacf9a-77c0-4ced-87d9-8193900a8246" />
                </derivedFrom>
                <derivedFrom>
                    <reference value="Observation/44e78c2c-db7c-4a71-985e-8718054d2f4a" />
                </derivedFrom>
                <derivedFrom>
                    <reference value="MedicationDispense/d5510434-7595-4e2f-af12-759a5eb6b3b3" />
                </derivedFrom>
                <dosage>
                    <patientInstruction value="-" />
                    <timing>
                        <repeat>
                            <boundsPeriod>
                                <start value="2011-11-29" />
                            </boundsPeriod>
                            <when value="MORN" />
                        </repeat>
                    </timing>
                    <route>
                        <coding>
                            <system value="urn:oid:0.4.0.127.0.16.1.1.2.1" />
                            <code value="20053000" />
                            <display value="Oral use" />
                        </coding>
                    </route>
                    <doseAndRate>
                        <doseQuantity>
                            <value value="0.5" />
                            <unit value="Tablet (unit of presentation)" />
                            <system value="http://snomed.info/sct" />
                            <code value="732936001" />
                        </doseQuantity>
                    </doseAndRate>
                </dosage>
            </MedicationStatement>
        </resource>
    </entry>
    <entry>
        <fullUrl value="https://int.documedis.hcisolutions.ch/CE/mda/2020-01/Observation/44e78c2c-db7c-4a71-985e-8718054d2f4a" />
        <resource>
            <Observation>
                <id value="44e78c2c-db7c-4a71-985e-8718054d2f4a" />
                <identifier>
                    <system value="urn:ietf:rfc:3986" />
                    <value value="urn:uuid:44e78c2c-db7c-4a71-985e-8718054d2f4a" />
                </identifier>
                <status value="final" />
                <code>
                    <coding>
                        <system value="urn:oid:1.3.6.1.4.1.19376.1.9.2.1" />
                        <code value="OK" />
                    </coding>
                </code>
                <valueCodeableConcept>
                    <coding>
                        <system value="http://hcisolutions.ch/ig/analyzer/CodeSystem/history-changes" />
                        <code value="sameMedication" />
                    </coding>
                </valueCodeableConcept>
            </Observation>
        </resource>
    </entry>
</Bundle>