<Bundle xmlns="http://hl7.org/fhir">
    <id value="2-2-Comment-ConsolidatedMedicationCard" />
    <identifier>
        <system value="urn:ietf:rfc:3986" />
        <value value="urn:uuid:19efe70e-cb4f-4c52-8136-487745683660" />
    </identifier>
    <type value="document" />
    <timestamp value="2023-02-14T08:02:07.0691756+00:00" />
    <entry>
        <fullUrl value="https://int.documedis.hcisolutions.ch/CE/mda/2020-01/Composition/19efe70e-cb4f-4c52-8136-487745683660" />
        <resource>
            <Composition>
                <id value="19efe70e-cb4f-4c52-8136-487745683660" />
                <identifier>
                    <system value="urn:ietf:rfc:3986" />
                    <value value="urn:uuid:19efe70e-cb4f-4c52-8136-487745683660" />
                </identifier>
                <status value="final" />
                <type>
                    <coding>
                        <system value="http://snomed.info/sct" />
                        <code value="721912009" />
                    </coding>
                </type>
                <subject>
                    <reference value="Patient/9c707ef5-2a45-47a4-8cb0-75549ee03aa7" />
                </subject>
                <date value="2023-02-14T08:02:07.069+00:00" />
                <author>
                    <reference value="Device/Analyzer" />
                </author>
                <title value="Medikationsplan" />
                <section>
                    <entry>
                        <reference value="MedicationStatement/6f0da167-5fcc-48c5-bb5f-940f6c586639" />
                    </entry>
                </section>
            </Composition>
        </resource>
    </entry>
    <entry>
        <fullUrl value="https://int.documedis.hcisolutions.ch/CE/mda/2020-01/Device/Analyzer" />
        <resource>
            <Device>
                <id value="Analyzer" />
                <deviceName>
                    <name value="Documedis Medical Data Analyzer CE" />
                    <type value="user-friendly-name" />
                </deviceName>
                <version>
                    <value value="0.0.0.1" />
                </version>
            </Device>
        </resource>
    </entry>
    <entry>
        <fullUrl value="https://int.documedis.hcisolutions.ch/CE/mda/2020-01/Patient/9c707ef5-2a45-47a4-8cb0-75549ee03aa7" />
        <resource>
            <Patient>
                <id value="9c707ef5-2a45-47a4-8cb0-75549ee03aa7" />
                <identifier>
                    <type>
                        <coding>
                            <system value="http://terminology.hl7.org/CodeSystem/v2-0203" />
                            <code value="MR" />
                        </coding>
                    </type>
                    <system value="urn:oid:2.999.1" />
                    <value value="11111111" />
                </identifier>
                <name>
                    <family value="Wegmüller" />
                    <given value="Monika" />
                </name>
                <gender value="female" />
                <birthDate value="1943-05-15" />
                <address>
                    <line value="Wiesenstr. 12" />
                    <city value="Zürich" />
                    <postalCode value="8003" />
                    <country value="CH" />
                </address>
            </Patient>
        </resource>
    </entry>
    <entry>
        <fullUrl value="https://int.documedis.hcisolutions.ch/CE/mda/2020-01/PractitionerRole/7dce299b-f9b8-49ea-8c95-ac8a67f2048f" />
        <resource>
            <PractitionerRole>
                <id value="7dce299b-f9b8-49ea-8c95-ac8a67f2048f" />
                <practitioner>
                    <reference value="Practitioner/6984c5c6-ac4a-49d9-b2c5-74cb126d5644" />
                </practitioner>
                <organization>
                    <reference value="Organization/894ff464-57b0-4c39-9aaa-89e757b71a35" />
                </organization>
            </PractitionerRole>
        </resource>
    </entry>
    <entry>
        <fullUrl value="https://int.documedis.hcisolutions.ch/CE/mda/2020-01/Practitioner/6984c5c6-ac4a-49d9-b2c5-74cb126d5644" />
        <resource>
            <Practitioner>
                <id value="6984c5c6-ac4a-49d9-b2c5-74cb126d5644" />
                <identifier>
                    <system value="urn:oid:2.51.1.3" />
                    <value value="7601000234438" />
                </identifier>
                <name>
                    <family value="Hausarzt" />
                    <given value="Familien" />
                </name>
            </Practitioner>
        </resource>
    </entry>
    <entry>
        <fullUrl value="https://int.documedis.hcisolutions.ch/CE/mda/2020-01/Organization/894ff464-57b0-4c39-9aaa-89e757b71a35" />
        <resource>
            <Organization>
                <id value="894ff464-57b0-4c39-9aaa-89e757b71a35" />
                <identifier>
                    <system value="urn:oid:2.51.1.3" />
                    <value value="7601000234438" />
                </identifier>
                <name value="Hausarzt" />
                <address>
                    <line value="Krankenstrasse 2" />
                    <city value="Zürich" />
                    <postalCode value="8005" />
                    <country value="CH" />
                </address>
            </Organization>
        </resource>
    </entry>
    <entry>
        <fullUrl value="https://int.documedis.hcisolutions.ch/CE/mda/2020-01/MedicationStatement/aff7959e-b398-4637-a25f-f17fa8e71a02" />
        <resource>
            <MedicationStatement>
                <id value="aff7959e-b398-4637-a25f-f17fa8e71a02" />
                <contained>
                    <Medication>
                        <id value="med" />
                        <code>
                            <coding>
                                <system value="urn:oid:2.51.1.1" />
                                <code value="7680538751228" />
                                <display value="Triatec Tabl 2.5 mg 20 Stk" />
                            </coding>
                            <text value="TRIATEC Tabl 2.5 mg" />
                        </code>
                        <form>
                            <coding>
                                <system value="urn:oid:0.4.0.127.0.16.1.1.2.1" />
                                <code value="10219000" />
                                <display value="Tablet" />
                            </coding>
                        </form>
                        <amount>
                            <numerator>
                                <value value="20" />
                                <unit value="Tablet (unit of presentation)" />
                                <system value="http://snomed.info/sct" />
                                <code value="732936001" />
                            </numerator>
                            <denominator>
                                <value value="1" />
                                <unit value="Package" />
                                <system value="http://unitsofmeasure.org" />
                                <code value="{Package}" />
                            </denominator>
                        </amount>
                        <ingredient>
                            <itemCodeableConcept>
                                <coding>
                                    <system value="http://snomed.info/sct" />
                                    <code value="386872004" />
                                    <display value="Ramipril (substance)" />
                                </coding>
                                <text value="Ramipril" />
                            </itemCodeableConcept>
                            <strength>
                                <numerator>
                                    <value value="2.5" />
                                    <unit value="milligram" />
                                    <system value="http://unitsofmeasure.org" />
                                    <code value="mg" />
                                </numerator>
                                <denominator>
                                    <value value="1" />
                                    <unit value="Tablet (unit of presentation)" />
                                    <system value="http://snomed.info/sct" />
                                    <code value="732936001" />
                                </denominator>
                            </strength>
                        </ingredient>
                    </Medication>
                </contained>
                <extension url="http://hcisolutions.ch/ig/analyzer/StructureDefinition/infoinputdocument">
                    <extension url="http://hcisolutions.ch/ig/analyzer/StructureDefinition/inputdocumentsource">
                        <valueString value="EPD" />
                    </extension>
                    <extension url="http://hcisolutions.ch/ig/analyzer/StructureDefinition/inputdocumenttype">
                        <valueCodeableConcept>
                            <coding>
                                <system value="http://loinc.org" />
                                <code value="77603-9" />
                            </coding>
                        </valueCodeableConcept>
                    </extension>
                    <extension url="http://hcisolutions.ch/ig/analyzer/StructureDefinition/inputdocumentdate">
                        <valueDateTime value="2011-11-29T11:00:00+01:00" />
                    </extension>
                    <extension url="http://hcisolutions.ch/ig/analyzer/StructureDefinition/parentdocumentid">
                        <valueIdentifier>
                            <system value="urn:ietf:rfc:3986" />
                            <value value="urn:uuid:c9f758a1-296c-4710-84d4-e181db8c7478" />
                        </valueIdentifier>
                    </extension>
                </extension>
                <identifier>
                    <system value="urn:ietf:rfc:3986" />
                    <value value="urn:uuid:c9f758a1-296c-4710-84d4-e181db8c7478" />
                </identifier>
                <status value="active" />
                <category>
                    <coding>
                        <system value="http://www.whocc.no/atc" />
                        <code value="C" />
                        <display value="Kardiovaskuläres System" />
                    </coding>
                </category>
                <medicationReference>
                    <reference value="#med" />
                </medicationReference>
                <subject>
                    <reference value="Patient/9c707ef5-2a45-47a4-8cb0-75549ee03aa7" />
                </subject>
                <informationSource>
                    <reference value="PractitionerRole/7dce299b-f9b8-49ea-8c95-ac8a67f2048f" />
                </informationSource>
                <reasonCode>
                    <text value="Bluthochdruck" />
                </reasonCode>
                <dosage>
                    <patientInstruction value="-" />
                    <timing>
                        <repeat>
                            <boundsPeriod>
                                <start value="2011-11-29" />
                            </boundsPeriod>
                            <when value="MORN" />
                        </repeat>
                    </timing>
                    <route>
                        <coding>
                            <system value="urn:oid:0.4.0.127.0.16.1.1.2.1" />
                            <code value="20053000" />
                            <display value="Oral use" />
                        </coding>
                    </route>
                    <doseAndRate>
                        <doseQuantity>
                            <value value="0.5" />
                            <unit value="Tablet (unit of presentation)" />
                            <system value="http://snomed.info/sct" />
                            <code value="732936001" />
                        </doseQuantity>
                    </doseAndRate>
                </dosage>
            </MedicationStatement>
        </resource>
    </entry>
    <entry>
        <fullUrl value="https://int.documedis.hcisolutions.ch/CE/mda/2020-01/MedicationDispense/db717e56-cde1-421d-ba7e-c3ed3e119679" />
        <resource>
            <MedicationDispense>
                <id value="db717e56-cde1-421d-ba7e-c3ed3e119679" />
                <contained>
                    <Medication>
                        <id value="med" />
                        <code>
                            <coding>
                                <system value="urn:oid:2.51.1.1" />
                                <code value="7680538751228" />
                                <display value="Triatec Tabl 2.5 mg 20 Stk" />
                            </coding>
                            <text value="TRIATEC Tabl 2.5 mg" />
                        </code>
                        <form>
                            <coding>
                                <system value="urn:oid:0.4.0.127.0.16.1.1.2.1" />
                                <code value="10219000" />
                                <display value="Tablet" />
                            </coding>
                        </form>
                        <amount>
                            <numerator>
                                <value value="20" />
                                <unit value="Tablet (unit of presentation)" />
                                <system value="http://snomed.info/sct" />
                                <code value="732936001" />
                            </numerator>
                            <denominator>
                                <value value="1" />
                                <unit value="Package" />
                                <system value="http://unitsofmeasure.org" />
                                <code value="{Package}" />
                            </denominator>
                        </amount>
                        <ingredient>
                            <itemCodeableConcept>
                                <coding>
                                    <system value="http://snomed.info/sct" />
                                    <code value="386872004" />
                                    <display value="Ramipril (substance)" />
                                </coding>
                                <text value="Ramipril" />
                            </itemCodeableConcept>
                            <strength>
                                <numerator>
                                    <value value="2.5" />
                                    <unit value="milligram" />
                                    <system value="http://unitsofmeasure.org" />
                                    <code value="mg" />
                                </numerator>
                                <denominator>
                                    <value value="1" />
                                    <unit value="Tablet (unit of presentation)" />
                                    <system value="http://snomed.info/sct" />
                                    <code value="732936001" />
                                </denominator>
                            </strength>
                        </ingredient>
                    </Medication>
                </contained>
                <extension url="http://hcisolutions.ch/ig/analyzer/StructureDefinition/infoinputdocument">
                    <extension url="http://hcisolutions.ch/ig/analyzer/StructureDefinition/inputdocumentsource">
                        <valueString value="EPD" />
                    </extension>
                    <extension url="http://hcisolutions.ch/ig/analyzer/StructureDefinition/inputdocumenttype">
                        <valueCodeableConcept>
                            <coding>
                                <system value="http://loinc.org" />
                                <code value="60593-1" />
                            </coding>
                        </valueCodeableConcept>
                    </extension>
                    <extension url="http://hcisolutions.ch/ig/analyzer/StructureDefinition/inputdocumentdate">
                        <valueDateTime value="2011-11-29T11:01:00+01:00" />
                    </extension>
                    <extension url="http://hcisolutions.ch/ig/analyzer/StructureDefinition/parentdocumentid">
                        <valueIdentifier>
                            <system value="urn:ietf:rfc:3986" />
                            <value value="urn:uuid:488bd23a-20c6-11e6-b67b-9e71128cae77" />
                        </valueIdentifier>
                    </extension>
                </extension>
                <extension url="http://fhir.ch/ig/ch-emed/StructureDefinition/ch-emed-ext-treatmentplan">
                    <extension url="id">
                        <valueIdentifier>
                            <system value="urn:ietf:rfc:3986" />
                            <value value="urn:uuid:c9f758a1-296c-4710-84d4-e181db8c7478" />
                        </valueIdentifier>
                    </extension>
                    <extension url="externalDocumentId">
                        <valueIdentifier>
                            <system value="urn:ietf:rfc:3986" />
                            <value value="urn:uuid:c9f758a1-296c-4710-84d4-e181db8c7478" />
                        </valueIdentifier>
                    </extension>
                </extension>
                <identifier>
                    <system value="urn:ietf:rfc:3986" />
                    <value value="urn:uuid:488bd23a-20c6-11e6-b67b-9e71128cae77" />
                </identifier>
                <status value="completed" />
                <category>
                    <coding>
                        <system value="http://www.whocc.no/atc" />
                        <code value="C" />
                        <display value="Kardiovaskuläres System" />
                    </coding>
                </category>
                <medicationReference>
                    <reference value="#med" />
                </medicationReference>
                <subject>
                    <reference value="Patient/9c707ef5-2a45-47a4-8cb0-75549ee03aa7" />
                </subject>
                <performer>
                    <actor>
                        <reference value="PractitionerRole/7dce299b-f9b8-49ea-8c95-ac8a67f2048f" />
                    </actor>
                </performer>
                <quantity>
                    <value value="1" />
                </quantity>
                <dosageInstruction>
                    <patientInstruction value="-" />
                    <timing>
                        <repeat>
                            <boundsPeriod>
                                <start value="2011-11-29" />
                            </boundsPeriod>
                            <when value="MORN" />
                        </repeat>
                    </timing>
                    <route>
                        <coding>
                            <system value="urn:oid:0.4.0.127.0.16.1.1.2.1" />
                            <code value="20053000" />
                            <display value="Oral use" />
                        </coding>
                    </route>
                    <doseAndRate>
                        <doseQuantity>
                            <value value="0.5" />
                            <unit value="Tablet (unit of presentation)" />
                            <system value="http://snomed.info/sct" />
                            <code value="732936001" />
                        </doseQuantity>
                    </doseAndRate>
                </dosageInstruction>
            </MedicationDispense>
        </resource>
    </entry>
    <entry>
        <fullUrl value="https://int.documedis.hcisolutions.ch/CE/mda/2020-01/Observation/ac6036f0-1d9c-4064-a4ff-7a83947458e7" />
        <resource>
            <Observation>
                <id value="ac6036f0-1d9c-4064-a4ff-7a83947458e7" />
                <extension url="http://hcisolutions.ch/ig/analyzer/StructureDefinition/infoinputdocument">
                    <extension url="http://hcisolutions.ch/ig/analyzer/StructureDefinition/inputdocumentsource">
                        <valueString value="EPD" />
                    </extension>
                    <extension url="http://hcisolutions.ch/ig/analyzer/StructureDefinition/inputdocumenttype">
                        <valueCodeableConcept>
                            <coding>
                                <system value="http://loinc.org" />
                                <code value="61356-2" />
                            </coding>
                        </valueCodeableConcept>
                    </extension>
                    <extension url="http://hcisolutions.ch/ig/analyzer/StructureDefinition/inputdocumentdate">
                        <valueDateTime value="2012-02-04T14:00:00+01:00" />
                    </extension>
                    <extension url="http://hcisolutions.ch/ig/analyzer/StructureDefinition/parentdocumentid">
                        <valueIdentifier>
                            <system value="urn:ietf:rfc:3986" />
                            <value value="urn:uuid:8573b2ef-384a-40ad-bf03-a6c129cf2aa3" />
                        </valueIdentifier>
                    </extension>
                </extension>
                <extension url="http://fhir.ch/ig/ch-emed/StructureDefinition/ch-emed-ext-treatmentplan">
                    <extension url="id">
                        <valueIdentifier>
                            <system value="urn:ietf:rfc:3986" />
                            <value value="urn:uuid:c9f758a1-296c-4710-84d4-e181db8c7478" />
                        </valueIdentifier>
                    </extension>
                    <extension url="externalDocumentId">
                        <valueIdentifier>
                            <system value="urn:ietf:rfc:3986" />
                            <value value="urn:uuid:c9f758a1-296c-4710-84d4-e181db8c7478" />
                        </valueIdentifier>
                    </extension>
                </extension>
                <identifier>
                    <system value="urn:ietf:rfc:3986" />
                    <value value="urn:uuid:8573b2ef-384a-40ad-bf03-a6c129cf2aa3" />
                </identifier>
                <status value="final" />
                <code>
                    <coding>
                        <system value="urn:oid:1.3.6.1.4.1.19376.1.9.2.1" />
                        <code value="COMMENT" />
                    </coding>
                </code>
                <subject>
                    <reference value="Patient/9c707ef5-2a45-47a4-8cb0-75549ee03aa7" />
                </subject>
                <effectiveDateTime value="2012-02-04T14:00:00+01:00" />
                <performer>
                    <reference value="PractitionerRole/7dce299b-f9b8-49ea-8c95-ac8a67f2048f" />
                </performer>
                <note>
                    <text value="Patientin verträgt das Medikament gut" />
                </note>
            </Observation>
        </resource>
    </entry>
    <entry>
        <fullUrl value="https://int.documedis.hcisolutions.ch/CE/mda/2020-01/MedicationStatement/6f0da167-5fcc-48c5-bb5f-940f6c586639" />
        <resource>
            <MedicationStatement>
                <id value="6f0da167-5fcc-48c5-bb5f-940f6c586639" />
                <contained>
                    <Medication>
                        <id value="med" />
                        <code>
                            <coding>
                                <system value="urn:oid:2.51.1.1" />
                                <code value="7680538751228" />
                                <display value="Triatec Tabl 2.5 mg 20 Stk" />
                            </coding>
                            <text value="TRIATEC Tabl 2.5 mg" />
                        </code>
                        <form>
                            <coding>
                                <system value="urn:oid:0.4.0.127.0.16.1.1.2.1" />
                                <code value="10219000" />
                                <display value="Tablet" />
                            </coding>
                        </form>
                        <amount>
                            <numerator>
                                <value value="20" />
                                <unit value="Tablet (unit of presentation)" />
                                <system value="http://snomed.info/sct" />
                                <code value="732936001" />
                            </numerator>
                            <denominator>
                                <value value="1" />
                                <unit value="Package" />
                                <system value="http://unitsofmeasure.org" />
                                <code value="{Package}" />
                            </denominator>
                        </amount>
                        <ingredient>
                            <itemCodeableConcept>
                                <coding>
                                    <system value="http://snomed.info/sct" />
                                    <code value="386872004" />
                                    <display value="Ramipril (substance)" />
                                </coding>
                                <text value="Ramipril" />
                            </itemCodeableConcept>
                            <strength>
                                <numerator>
                                    <value value="2.5" />
                                    <unit value="milligram" />
                                    <system value="http://unitsofmeasure.org" />
                                    <code value="mg" />
                                </numerator>
                                <denominator>
                                    <value value="1" />
                                    <unit value="Tablet (unit of presentation)" />
                                    <system value="http://snomed.info/sct" />
                                    <code value="732936001" />
                                </denominator>
                            </strength>
                        </ingredient>
                    </Medication>
                </contained>
                <identifier>
                    <system value="urn:ietf:rfc:3986" />
                    <value value="urn:uuid:6f0da167-5fcc-48c5-bb5f-940f6c586639" />
                </identifier>
                <status value="unknown" />
                <category>
                    <coding>
                        <system value="http://www.whocc.no/atc" />
                        <code value="C" />
                        <display value="Kardiovaskuläres System" />
                    </coding>
                </category>
                <medicationReference>
                    <reference value="#med" />
                </medicationReference>
                <subject>
                    <reference value="Patient/9c707ef5-2a45-47a4-8cb0-75549ee03aa7" />
                </subject>
                <informationSource>
                    <reference value="PractitionerRole/7dce299b-f9b8-49ea-8c95-ac8a67f2048f" />
                </informationSource>
                <derivedFrom>
                    <reference value="MedicationStatement/aff7959e-b398-4637-a25f-f17fa8e71a02" />
                </derivedFrom>
                <derivedFrom>
                    <reference value="Observation/9e5e6b1d-1196-4ddc-8de1-6d4506d2db47" />
                </derivedFrom>
                <derivedFrom>
                    <reference value="MedicationDispense/db717e56-cde1-421d-ba7e-c3ed3e119679" />
                </derivedFrom>
                <derivedFrom>
                    <reference value="Observation/af541939-6239-4047-bd98-668f7e0dd2f3" />
                </derivedFrom>
                <derivedFrom>
                    <reference value="Observation/ac6036f0-1d9c-4064-a4ff-7a83947458e7" />
                </derivedFrom>
                <dosage>
                    <patientInstruction value="-" />
                    <timing>
                        <repeat>
                            <boundsPeriod>
                                <start value="2011-11-29" />
                            </boundsPeriod>
                            <when value="MORN" />
                        </repeat>
                    </timing>
                    <route>
                        <coding>
                            <system value="urn:oid:0.4.0.127.0.16.1.1.2.1" />
                            <code value="20053000" />
                            <display value="Oral use" />
                        </coding>
                    </route>
                    <doseAndRate>
                        <doseQuantity>
                            <value value="0.5" />
                            <unit value="Tablet (unit of presentation)" />
                            <system value="http://snomed.info/sct" />
                            <code value="732936001" />
                        </doseQuantity>
                    </doseAndRate>
                </dosage>
            </MedicationStatement>
        </resource>
    </entry>
    <entry>
        <fullUrl value="https://int.documedis.hcisolutions.ch/CE/mda/2020-01/Observation/9e5e6b1d-1196-4ddc-8de1-6d4506d2db47" />
        <resource>
            <Observation>
                <id value="9e5e6b1d-1196-4ddc-8de1-6d4506d2db47" />
                <identifier>
                    <system value="urn:ietf:rfc:3986" />
                    <value value="urn:uuid:9e5e6b1d-1196-4ddc-8de1-6d4506d2db47" />
                </identifier>
                <status value="final" />
                <code>
                    <coding>
                        <system value="urn:oid:1.3.6.1.4.1.19376.1.9.2.1" />
                        <code value="OK" />
                    </coding>
                </code>
                <valueCodeableConcept>
                    <coding>
                        <system value="http://hcisolutions.ch/ig/analyzer/CodeSystem/history-changes" />
                        <code value="sameMedication" />
                    </coding>
                </valueCodeableConcept>
            </Observation>
        </resource>
    </entry>
    <entry>
        <fullUrl value="https://int.documedis.hcisolutions.ch/CE/mda/2020-01/Observation/af541939-6239-4047-bd98-668f7e0dd2f3" />
        <resource>
            <Observation>
                <id value="af541939-6239-4047-bd98-668f7e0dd2f3" />
                <identifier>
                    <system value="urn:ietf:rfc:3986" />
                    <value value="urn:uuid:af541939-6239-4047-bd98-668f7e0dd2f3" />
                </identifier>
                <status value="final" />
                <code>
                    <coding>
                        <system value="urn:oid:1.3.6.1.4.1.19376.1.9.2.1" />
                        <code value="COMMENT" />
                    </coding>
                </code>
                <valueCodeableConcept>
                    <coding>
                        <system value="http://hcisolutions.ch/ig/analyzer/CodeSystem/history-changes" />
                        <code value="comment" />
                    </coding>
                </valueCodeableConcept>
            </Observation>
        </resource>
    </entry>
</Bundle>