<Bundle xmlns="http://hl7.org/fhir">
    <id value="A1-ConsolidatedMedicationCard" />
    <identifier>
        <system value="urn:ietf:rfc:3986" />
        <value value="urn:uuid:1f7f8ace-7c22-4255-b30d-d4406c3192e2" />
    </identifier>
    <type value="document" />
    <timestamp value="2023-03-17T09:49:07.0784844+00:00" />
    <entry>
        <fullUrl value="https://int.documedis.hcisolutions.ch/CE/mda/2020-01/Composition/1f7f8ace-7c22-4255-b30d-d4406c3192e2" />
        <resource>
            <Composition>
                <id value="1f7f8ace-7c22-4255-b30d-d4406c3192e2" />
                <identifier>
                    <system value="urn:ietf:rfc:3986" />
                    <value value="urn:uuid:1f7f8ace-7c22-4255-b30d-d4406c3192e2" />
                </identifier>
                <status value="final" />
                <type>
                    <coding>
                        <system value="http://snomed.info/sct" />
                        <code value="721912009" />
                    </coding>
                </type>
                <subject>
                    <reference value="Patient/8189f3eb-6fa1-4d6c-9a65-ec41010f30f2" />
                </subject>
                <date value="2023-03-17T09:49:07.078+00:00" />
                <author>
                    <reference value="Device/Analyzer" />
                </author>
                <title value="Medikationsplan" />
                <section>
                    <entry>
                        <reference value="MedicationStatement/30d7fdcc-b79d-4fca-af6e-21adb53fbd65" />
                    </entry>
                </section>
            </Composition>
        </resource>
    </entry>
    <entry>
        <fullUrl value="https://int.documedis.hcisolutions.ch/CE/mda/2020-01/Device/Analyzer" />
        <resource>
            <Device>
                <id value="Analyzer" />
                <deviceName>
                    <name value="Documedis Medical Data Analyzer CE" />
                    <type value="user-friendly-name" />
                </deviceName>
                <version>
                    <value value="0.0.0.1" />
                </version>
            </Device>
        </resource>
    </entry>
    <entry>
        <fullUrl value="https://int.documedis.hcisolutions.ch/CE/mda/2020-01/Patient/8189f3eb-6fa1-4d6c-9a65-ec41010f30f2" />
        <resource>
            <Patient>
                <id value="8189f3eb-6fa1-4d6c-9a65-ec41010f30f2" />
                <identifier>
                    <type>
                        <coding>
                            <system value="http://terminology.hl7.org/CodeSystem/v2-0203" />
                            <code value="MR" />
                        </coding>
                    </type>
                    <system value="urn:oid:2.999.1" />
                    <value value="11111111" />
                </identifier>
                <name>
                    <family value="Wegmüller" />
                    <given value="Monika" />
                </name>
                <gender value="female" />
                <birthDate value="1943-05-15" />
                <address>
                    <line value="Wiesenstr. 12" />
                    <city value="Zürich" />
                    <postalCode value="8003" />
                    <country value="CH" />
                </address>
                <communication>
                    <language>
                        <coding>
                            <system value="urn:ietf:bcp:47" />
                            <code value="de-CH" />
                            <display value="German (Region=Switzerland)" />
                        </coding>
                    </language>
                    <preferred value="true" />
                </communication>
            </Patient>
        </resource>
    </entry>
    <entry>
        <fullUrl value="https://int.documedis.hcisolutions.ch/CE/mda/2020-01/PractitionerRole/20cf6ca5-4f73-444a-8b12-d2a3803e61c7" />
        <resource>
            <PractitionerRole>
                <id value="20cf6ca5-4f73-444a-8b12-d2a3803e61c7" />
                <practitioner>
                    <reference value="Practitioner/1f1833d6-94bb-46c7-b61c-ab1943d92582" />
                </practitioner>
                <organization>
                    <reference value="Organization/66cea257-7035-48b6-ae20-b5b51370b57b" />
                </organization>
            </PractitionerRole>
        </resource>
    </entry>
    <entry>
        <fullUrl value="https://int.documedis.hcisolutions.ch/CE/mda/2020-01/Practitioner/1f1833d6-94bb-46c7-b61c-ab1943d92582" />
        <resource>
            <Practitioner>
                <id value="1f1833d6-94bb-46c7-b61c-ab1943d92582" />
                <identifier>
                    <system value="urn:oid:2.51.1.3" />
                    <value value="7601023234613" />
                </identifier>
                <name>
                    <family value="Dupont" />
                    <given value="Hausarzt" />
                </name>
            </Practitioner>
        </resource>
    </entry>
    <entry>
        <fullUrl value="https://int.documedis.hcisolutions.ch/CE/mda/2020-01/Organization/66cea257-7035-48b6-ae20-b5b51370b57b" />
        <resource>
            <Organization>
                <id value="66cea257-7035-48b6-ae20-b5b51370b57b" />
                <identifier>
                    <system value="urn:oid:2.51.1.3" />
                    <value value="7601023234613" />
                </identifier>
                <name value="Hausarzt" />
                <address>
                    <line value="Dupontstrasse" />
                    <city value="Bern" />
                    <postalCode value="3000" />
                    <country value="CH" />
                </address>
            </Organization>
        </resource>
    </entry>
    <entry>
        <fullUrl value="https://int.documedis.hcisolutions.ch/CE/mda/2020-01/PractitionerRole/656fa82e-82f6-47ec-b270-5f8aad22c035" />
        <resource>
            <PractitionerRole>
                <id value="656fa82e-82f6-47ec-b270-5f8aad22c035" />
                <practitioner>
                    <reference value="Practitioner/e8451e37-3597-4e30-bbde-f582b10318ba" />
                </practitioner>
                <organization>
                    <reference value="Organization/3a8f4ef6-376e-4fe7-b138-b9f2d2614634" />
                </organization>
            </PractitionerRole>
        </resource>
    </entry>
    <entry>
        <fullUrl value="https://int.documedis.hcisolutions.ch/CE/mda/2020-01/Practitioner/e8451e37-3597-4e30-bbde-f582b10318ba" />
        <resource>
            <Practitioner>
                <id value="e8451e37-3597-4e30-bbde-f582b10318ba" />
                <identifier>
                    <system value="urn:oid:2.51.1.3" />
                    <value value="7601000876546" />
                </identifier>
                <name>
                    <family value="Apotheker" />
                    <given value="Andreas" />
                </name>
            </Practitioner>
        </resource>
    </entry>
    <entry>
        <fullUrl value="https://int.documedis.hcisolutions.ch/CE/mda/2020-01/Organization/3a8f4ef6-376e-4fe7-b138-b9f2d2614634" />
        <resource>
            <Organization>
                <id value="3a8f4ef6-376e-4fe7-b138-b9f2d2614634" />
                <identifier>
                    <system value="urn:oid:2.51.1.3" />
                    <value value="7601000876546" />
                </identifier>
                <name value="Apotheke Gare" />
                <address>
                    <line value="Apothekerstrasse" />
                    <city value="Bern" />
                    <postalCode value="3000" />
                    <country value="CH" />
                </address>
            </Organization>
        </resource>
    </entry>
    <entry>
        <fullUrl value="https://int.documedis.hcisolutions.ch/CE/mda/2020-01/MedicationStatement/fab85e78-342f-466e-acaf-a83e9315c04c" />
        <resource>
            <MedicationStatement>
                <id value="fab85e78-342f-466e-acaf-a83e9315c04c" />
                <contained>
                    <Medication>
                        <id value="cont1" />
                        <code>
                            <coding>
                                <system value="urn:oid:2.51.1.1" />
                                <code value="7680497420616" />
                                <display value="Zocor Filmtabl 40 mg 98 Stk" />
                            </coding>
                            <text value="ZOCOR Filmtabl 40 mg" />
                        </code>
                        <form>
                            <coding>
                                <system value="urn:oid:0.4.0.127.0.16.1.1.2.1" />
                                <code value="10221000" />
                                <display value="Film-coated tablet" />
                            </coding>
                        </form>
                        <amount>
                            <numerator>
                                <value value="98" />
                                <unit value="Piece" />
                                <system value="http://unitsofmeasure.org" />
                                <code value="{Piece}" />
                            </numerator>
                            <denominator>
                                <value value="1" />
                                <unit value="Package" />
                                <system value="http://unitsofmeasure.org" />
                                <code value="{Package}" />
                            </denominator>
                        </amount>
                        <ingredient>
                            <itemCodeableConcept>
                                <coding>
                                    <system value="http://snomed.info/sct" />
                                    <code value="387584000" />
                                    <display value="Simvastatin (substance)" />
                                </coding>
                                <text value="Simvastatin (substance)" />
                            </itemCodeableConcept>
                            <strength>
                                <numerator>
                                    <value value="40" />
                                    <unit value="milligram" />
                                    <system value="http://unitsofmeasure.org" />
                                    <code value="mg" />
                                </numerator>
                                <denominator>
                                    <value value="1" />
                                    <unit value="Tablet (unit of presentation)" />
                                    <system value="http://snomed.info/sct" />
                                    <code value="732936001" />
                                </denominator>
                            </strength>
                        </ingredient>
                    </Medication>
                </contained>
                <extension url="http://hcisolutions.ch/ig/analyzer/StructureDefinition/infoinputdocument">
                    <extension url="http://hcisolutions.ch/ig/analyzer/StructureDefinition/inputdocumentsource">
                        <valueString value="Cara" />
                    </extension>
                    <extension url="http://hcisolutions.ch/ig/analyzer/StructureDefinition/inputdocumenttype">
                        <valueCodeableConcept>
                            <coding>
                                <system value="http://loinc.org" />
                                <code value="56445-0" />
                            </coding>
                            <text value="Medication Card" />
                        </valueCodeableConcept>
                    </extension>
                    <extension url="http://hcisolutions.ch/ig/analyzer/StructureDefinition/inputdocumentdate">
                        <valueDateTime value="2020-03-01T11:00:00+01:00" />
                    </extension>
                    <extension url="http://hcisolutions.ch/ig/analyzer/StructureDefinition/parentdocumentid">
                        <valueIdentifier>
                            <system value="urn:ietf:rfc:3986" />
                            <value value="urn:uuid:26d3dff7-ab05-4737-a49c-5eccd33595a0" />
                        </valueIdentifier>
                    </extension>
                </extension>
                <identifier>
                    <system value="urn:ietf:rfc:3986" />
                    <value value="urn:uuid:6b7e044c-6d68-47f9-879e-0221338b45ba" />
                </identifier>
                <status value="active" />
                <category>
                    <coding>
                        <system value="http://www.whocc.no/atc" />
                        <code value="C" />
                        <display value="Kardiovaskuläres System" />
                    </coding>
                </category>
                <medicationReference>
                    <reference value="#cont1" />
                </medicationReference>
                <subject>
                    <reference value="Patient/8189f3eb-6fa1-4d6c-9a65-ec41010f30f2" />
                </subject>
                <informationSource>
                    <reference value="PractitionerRole/20cf6ca5-4f73-444a-8b12-d2a3803e61c7" />
                </informationSource>
                <reasonCode>
                    <text value="Cholesterinsenker" />
                </reasonCode>
                <dosage>
                    <timing>
                        <repeat>
                            <boundsPeriod>
                                <start value="2020-03-01" />
                            </boundsPeriod>
                            <when value="EVE" />
                        </repeat>
                    </timing>
                    <route>
                        <coding>
                            <system value="urn:oid:0.4.0.127.0.16.1.1.2.1" />
                            <code value="20053000" />
                            <display value="Oral use" />
                        </coding>
                    </route>
                    <doseAndRate>
                        <doseQuantity>
                            <value value="1" />
                            <unit value="Tablet (unit of presentation)" />
                            <system value="http://snomed.info/sct" />
                            <code value="732936001" />
                        </doseQuantity>
                    </doseAndRate>
                </dosage>
            </MedicationStatement>
        </resource>
    </entry>
    <entry>
        <fullUrl value="https://int.documedis.hcisolutions.ch/CE/mda/2020-01/MedicationStatement/a238d3e8-e618-4e0c-b8be-411de246aa29" />
        <resource>
            <MedicationStatement>
                <id value="a238d3e8-e618-4e0c-b8be-411de246aa29" />
                <contained>
                    <Medication>
                        <id value="cont1" />
                        <code>
                            <coding>
                                <system value="urn:oid:2.51.1.1" />
                                <code value="7680560350079" />
                                <display value="Simcora Filmtabl 40 mg 100 Stk" />
                            </coding>
                            <text value="SIMCORA Filmtabl 40 mg" />
                        </code>
                        <form>
                            <coding>
                                <system value="urn:oid:0.4.0.127.0.16.1.1.2.1" />
                                <code value="10221000" />
                                <display value="Film-coated tablet" />
                            </coding>
                        </form>
                        <amount>
                            <numerator>
                                <value value="100" />
                                <unit value="Piece" />
                                <system value="http://unitsofmeasure.org" />
                                <code value="{Piece}" />
                            </numerator>
                            <denominator>
                                <value value="1" />
                                <unit value="Package" />
                                <system value="http://unitsofmeasure.org" />
                                <code value="{Package}" />
                            </denominator>
                        </amount>
                        <ingredient>
                            <itemCodeableConcept>
                                <coding>
                                    <system value="http://snomed.info/sct" />
                                    <code value="387584000" />
                                    <display value="Simvastatin (substance)" />
                                </coding>
                                <text value="Simvastatin (substance)" />
                            </itemCodeableConcept>
                            <strength>
                                <numerator>
                                    <value value="40" />
                                    <unit value="milligram" />
                                    <system value="http://unitsofmeasure.org" />
                                    <code value="mg" />
                                </numerator>
                                <denominator>
                                    <value value="1" />
                                    <unit value="Tablet (unit of presentation)" />
                                    <system value="http://snomed.info/sct" />
                                    <code value="732936001" />
                                </denominator>
                            </strength>
                        </ingredient>
                    </Medication>
                </contained>
                <extension url="http://hcisolutions.ch/ig/analyzer/StructureDefinition/infoinputdocument">
                    <extension url="http://hcisolutions.ch/ig/analyzer/StructureDefinition/inputdocumentsource">
                        <valueString value="Cara" />
                    </extension>
                    <extension url="http://hcisolutions.ch/ig/analyzer/StructureDefinition/inputdocumenttype">
                        <valueCodeableConcept>
                            <coding>
                                <system value="http://loinc.org" />
                                <code value="56445-0" />
                            </coding>
                            <text value="Medication Card" />
                        </valueCodeableConcept>
                    </extension>
                    <extension url="http://hcisolutions.ch/ig/analyzer/StructureDefinition/inputdocumentdate">
                        <valueDateTime value="2020-03-01T16:00:00+01:00" />
                    </extension>
                    <extension url="http://hcisolutions.ch/ig/analyzer/StructureDefinition/parentdocumentid">
                        <valueIdentifier>
                            <system value="urn:ietf:rfc:3986" />
                            <value value="urn:uuid:26d3dff7-ab05-4737-a49c-5eccd33595a1" />
                        </valueIdentifier>
                    </extension>
                </extension>
                <identifier>
                    <system value="urn:ietf:rfc:3986" />
                    <value value="urn:uuid:a9d448f4-ed8d-45ae-81d9-41f2e82be808" />
                </identifier>
                <status value="active" />
                <category>
                    <coding>
                        <system value="http://www.whocc.no/atc" />
                        <code value="C" />
                        <display value="Kardiovaskuläres System" />
                    </coding>
                </category>
                <medicationReference>
                    <reference value="#cont1" />
                </medicationReference>
                <subject>
                    <reference value="Patient/8189f3eb-6fa1-4d6c-9a65-ec41010f30f2" />
                </subject>
                <informationSource>
                    <reference value="PractitionerRole/656fa82e-82f6-47ec-b270-5f8aad22c035" />
                </informationSource>
                <reasonCode>
                    <text value="Cholesterinsenker" />
                </reasonCode>
                <dosage>
                    <timing>
                        <repeat>
                            <boundsPeriod>
                                <start value="2020-03-01" />
                            </boundsPeriod>
                            <when value="EVE" />
                        </repeat>
                    </timing>
                    <route>
                        <coding>
                            <system value="urn:oid:0.4.0.127.0.16.1.1.2.1" />
                            <code value="20053000" />
                            <display value="Oral use" />
                        </coding>
                    </route>
                    <doseAndRate>
                        <doseQuantity>
                            <value value="1" />
                            <unit value="Tablet (unit of presentation)" />
                            <system value="http://snomed.info/sct" />
                            <code value="732936001" />
                        </doseQuantity>
                    </doseAndRate>
                </dosage>
            </MedicationStatement>
        </resource>
    </entry>
    <entry>
        <fullUrl value="https://int.documedis.hcisolutions.ch/CE/mda/2020-01/MedicationStatement/30d7fdcc-b79d-4fca-af6e-21adb53fbd65" />
        <resource>
            <MedicationStatement>
                <id value="30d7fdcc-b79d-4fca-af6e-21adb53fbd65" />
                <contained>
                    <Medication>
                        <id value="cont1" />
                        <code>
                            <coding>
                                <system value="urn:oid:2.51.1.1" />
                                <code value="7680560350079" />
                                <display value="Simcora Filmtabl 40 mg 100 Stk" />
                            </coding>
                            <text value="SIMCORA Filmtabl 40 mg" />
                        </code>
                        <form>
                            <coding>
                                <system value="urn:oid:0.4.0.127.0.16.1.1.2.1" />
                                <code value="10221000" />
                                <display value="Film-coated tablet" />
                            </coding>
                        </form>
                        <amount>
                            <numerator>
                                <value value="100" />
                                <unit value="Piece" />
                                <system value="http://unitsofmeasure.org" />
                                <code value="{Piece}" />
                            </numerator>
                            <denominator>
                                <value value="1" />
                                <unit value="Package" />
                                <system value="http://unitsofmeasure.org" />
                                <code value="{Package}" />
                            </denominator>
                        </amount>
                        <ingredient>
                            <itemCodeableConcept>
                                <coding>
                                    <system value="http://snomed.info/sct" />
                                    <code value="387584000" />
                                    <display value="Simvastatin (substance)" />
                                </coding>
                                <text value="Simvastatin (substance)" />
                            </itemCodeableConcept>
                            <strength>
                                <numerator>
                                    <value value="40" />
                                    <unit value="milligram" />
                                    <system value="http://unitsofmeasure.org" />
                                    <code value="mg" />
                                </numerator>
                                <denominator>
                                    <value value="1" />
                                    <unit value="Tablet (unit of presentation)" />
                                    <system value="http://snomed.info/sct" />
                                    <code value="732936001" />
                                </denominator>
                            </strength>
                        </ingredient>
                    </Medication>
                </contained>
                <identifier>
                    <system value="urn:ietf:rfc:3986" />
                    <value value="urn:uuid:30d7fdcc-b79d-4fca-af6e-21adb53fbd65" />
                </identifier>
                <status value="unknown" />
                <category>
                    <coding>
                        <system value="http://www.whocc.no/atc" />
                        <code value="C" />
                        <display value="Kardiovaskuläres System" />
                    </coding>
                </category>
                <medicationReference>
                    <reference value="#cont1" />
                </medicationReference>
                <subject>
                    <reference value="Patient/8189f3eb-6fa1-4d6c-9a65-ec41010f30f2" />
                </subject>
                <informationSource>
                    <reference value="PractitionerRole/656fa82e-82f6-47ec-b270-5f8aad22c035" />
                </informationSource>
                <derivedFrom>
                    <reference value="MedicationStatement/fab85e78-342f-466e-acaf-a83e9315c04c" />
                </derivedFrom>
                <derivedFrom>
                    <reference value="Observation/8f67a40c-603d-46bc-a812-e963f2e7fe90" />
                </derivedFrom>
                <derivedFrom>
                    <reference value="Observation/5e2237b2-a94c-463f-9026-5c073762c3dc" />
                </derivedFrom>
                <derivedFrom>
                    <reference value="MedicationStatement/a238d3e8-e618-4e0c-b8be-411de246aa29" />
                </derivedFrom>
                <dosage>
                    <timing>
                        <repeat>
                            <boundsPeriod>
                                <start value="2020-03-01" />
                            </boundsPeriod>
                            <when value="EVE" />
                        </repeat>
                    </timing>
                    <route>
                        <coding>
                            <system value="urn:oid:0.4.0.127.0.16.1.1.2.1" />
                            <code value="20053000" />
                            <display value="Oral use" />
                        </coding>
                    </route>
                    <doseAndRate>
                        <doseQuantity>
                            <value value="1" />
                            <unit value="Tablet (unit of presentation)" />
                            <system value="http://snomed.info/sct" />
                            <code value="732936001" />
                        </doseQuantity>
                    </doseAndRate>
                </dosage>
            </MedicationStatement>
        </resource>
    </entry>
    <entry>
        <fullUrl value="https://int.documedis.hcisolutions.ch/CE/mda/2020-01/Observation/8f67a40c-603d-46bc-a812-e963f2e7fe90" />
        <resource>
            <Observation>
                <id value="8f67a40c-603d-46bc-a812-e963f2e7fe90" />
                <identifier>
                    <system value="urn:ietf:rfc:3986" />
                    <value value="urn:uuid:8f67a40c-603d-46bc-a812-e963f2e7fe90" />
                </identifier>
                <status value="final" />
                <code>
                    <coding>
                        <system value="urn:oid:1.3.6.1.4.1.19376.1.9.2.1" />
                        <code value="CHANGE" />
                    </coding>
                </code>
                <valueCodeableConcept>
                    <coding>
                        <system value="http://hcisolutions.ch/ig/analyzer/CodeSystem/history-changes" />
                        <code value="changePractitioner" />
                    </coding>
                </valueCodeableConcept>
            </Observation>
        </resource>
    </entry>
    <entry>
        <fullUrl value="https://int.documedis.hcisolutions.ch/CE/mda/2020-01/Observation/5e2237b2-a94c-463f-9026-5c073762c3dc" />
        <resource>
            <Observation>
                <id value="5e2237b2-a94c-463f-9026-5c073762c3dc" />
                <identifier>
                    <system value="urn:ietf:rfc:3986" />
                    <value value="urn:uuid:5e2237b2-a94c-463f-9026-5c073762c3dc" />
                </identifier>
                <status value="final" />
                <code>
                    <coding>
                        <system value="urn:oid:1.3.6.1.4.1.19376.1.9.2.1" />
                        <code value="CHANGE" />
                    </coding>
                </code>
                <valueCodeableConcept>
                    <coding>
                        <system value="http://hcisolutions.ch/ig/analyzer/CodeSystem/history-changes" />
                        <code value="substitution" />
                    </coding>
                </valueCodeableConcept>
            </Observation>
        </resource>
    </entry>
</Bundle>