<Bundle xmlns="http://hl7.org/fhir">
    <id value="A2-ConsolidatedMedicationCard" />
    <identifier>
        <system value="urn:ietf:rfc:3986" />
        <value value="urn:uuid:467fb9e0-252d-41d5-ad7c-36734c178257" />
    </identifier>
    <type value="document" />
    <timestamp value="2023-03-17T09:49:08.6421679+00:00" />
    <entry>
        <fullUrl value="https://int.documedis.hcisolutions.ch/CE/mda/2020-01/Composition/467fb9e0-252d-41d5-ad7c-36734c178257" />
        <resource>
            <Composition>
                <id value="467fb9e0-252d-41d5-ad7c-36734c178257" />
                <identifier>
                    <system value="urn:ietf:rfc:3986" />
                    <value value="urn:uuid:467fb9e0-252d-41d5-ad7c-36734c178257" />
                </identifier>
                <status value="final" />
                <type>
                    <coding>
                        <system value="http://snomed.info/sct" />
                        <code value="721912009" />
                    </coding>
                </type>
                <subject>
                    <reference value="Patient/bc6cbdec-ba80-40a9-8d38-692187092976" />
                </subject>
                <date value="2023-03-17T09:49:08.642+00:00" />
                <author>
                    <reference value="Device/Analyzer" />
                </author>
                <title value="Medikationsplan" />
                <section>
                    <entry>
                        <reference value="MedicationStatement/42b39b91-26e9-4a5c-a66e-c3403498775d" />
                    </entry>
                </section>
            </Composition>
        </resource>
    </entry>
    <entry>
        <fullUrl value="https://int.documedis.hcisolutions.ch/CE/mda/2020-01/Device/Analyzer" />
        <resource>
            <Device>
                <id value="Analyzer" />
                <deviceName>
                    <name value="Documedis Medical Data Analyzer CE" />
                    <type value="user-friendly-name" />
                </deviceName>
                <version>
                    <value value="0.0.0.1" />
                </version>
            </Device>
        </resource>
    </entry>
    <entry>
        <fullUrl value="https://int.documedis.hcisolutions.ch/CE/mda/2020-01/Patient/bc6cbdec-ba80-40a9-8d38-692187092976" />
        <resource>
            <Patient>
                <id value="bc6cbdec-ba80-40a9-8d38-692187092976" />
                <identifier>
                    <type>
                        <coding>
                            <system value="http://terminology.hl7.org/CodeSystem/v2-0203" />
                            <code value="MR" />
                        </coding>
                    </type>
                    <system value="urn:oid:2.999.1" />
                    <value value="11111111" />
                </identifier>
                <name>
                    <family value="Wegmüller" />
                    <given value="Monika" />
                </name>
                <gender value="female" />
                <birthDate value="1943-05-15" />
                <address>
                    <line value="Wiesenstr. 12" />
                    <city value="Zürich" />
                    <postalCode value="8003" />
                    <country value="CH" />
                </address>
                <communication>
                    <language>
                        <coding>
                            <system value="urn:ietf:bcp:47" />
                            <code value="de-CH" />
                            <display value="German (Region=Switzerland)" />
                        </coding>
                    </language>
                    <preferred value="true" />
                </communication>
            </Patient>
        </resource>
    </entry>
    <entry>
        <fullUrl value="https://int.documedis.hcisolutions.ch/CE/mda/2020-01/PractitionerRole/09dccf3f-1e18-4c09-9ebc-8cf769dc6b4e" />
        <resource>
            <PractitionerRole>
                <id value="09dccf3f-1e18-4c09-9ebc-8cf769dc6b4e" />
                <practitioner>
                    <reference value="Practitioner/e2d558d6-d0c8-4891-a1d3-27385b201082" />
                </practitioner>
                <organization>
                    <reference value="Organization/1fc163b7-fec5-4870-b468-f4a2797599be" />
                </organization>
            </PractitionerRole>
        </resource>
    </entry>
    <entry>
        <fullUrl value="https://int.documedis.hcisolutions.ch/CE/mda/2020-01/Practitioner/e2d558d6-d0c8-4891-a1d3-27385b201082" />
        <resource>
            <Practitioner>
                <id value="e2d558d6-d0c8-4891-a1d3-27385b201082" />
                <identifier>
                    <system value="urn:oid:2.51.1.3" />
                    <value value="7601023234613" />
                </identifier>
                <name>
                    <family value="Dupont" />
                    <given value="Hausarzt" />
                </name>
            </Practitioner>
        </resource>
    </entry>
    <entry>
        <fullUrl value="https://int.documedis.hcisolutions.ch/CE/mda/2020-01/Organization/1fc163b7-fec5-4870-b468-f4a2797599be" />
        <resource>
            <Organization>
                <id value="1fc163b7-fec5-4870-b468-f4a2797599be" />
                <identifier>
                    <system value="urn:oid:2.51.1.3" />
                    <value value="7601023234613" />
                </identifier>
                <name value="Hausarzt" />
                <address>
                    <line value="Dupontstrasse" />
                    <city value="Bern" />
                    <postalCode value="3000" />
                    <country value="CH" />
                </address>
            </Organization>
        </resource>
    </entry>
    <entry>
        <fullUrl value="https://int.documedis.hcisolutions.ch/CE/mda/2020-01/PractitionerRole/f620b920-91b4-46f1-900a-8722370b153d" />
        <resource>
            <PractitionerRole>
                <id value="f620b920-91b4-46f1-900a-8722370b153d" />
                <practitioner>
                    <reference value="Practitioner/d7156ace-a60c-4e52-be0c-44bcdbdeeaf4" />
                </practitioner>
                <organization>
                    <reference value="Organization/a49e6d20-d401-4266-a8b9-f2fa9fb4cf75" />
                </organization>
            </PractitionerRole>
        </resource>
    </entry>
    <entry>
        <fullUrl value="https://int.documedis.hcisolutions.ch/CE/mda/2020-01/Practitioner/d7156ace-a60c-4e52-be0c-44bcdbdeeaf4" />
        <resource>
            <Practitioner>
                <id value="d7156ace-a60c-4e52-be0c-44bcdbdeeaf4" />
                <identifier>
                    <system value="urn:oid:2.51.1.3" />
                    <value value="7601000876546" />
                </identifier>
                <name>
                    <family value="Apotheker" />
                    <given value="Andreas" />
                </name>
            </Practitioner>
        </resource>
    </entry>
    <entry>
        <fullUrl value="https://int.documedis.hcisolutions.ch/CE/mda/2020-01/Organization/a49e6d20-d401-4266-a8b9-f2fa9fb4cf75" />
        <resource>
            <Organization>
                <id value="a49e6d20-d401-4266-a8b9-f2fa9fb4cf75" />
                <identifier>
                    <system value="urn:oid:2.51.1.3" />
                    <value value="7601000876546" />
                </identifier>
                <name value="Apotheke Gare" />
                <address>
                    <line value="Apothekerstrasse" />
                    <city value="Bern" />
                    <postalCode value="3000" />
                    <country value="CH" />
                </address>
            </Organization>
        </resource>
    </entry>
    <entry>
        <fullUrl value="https://int.documedis.hcisolutions.ch/CE/mda/2020-01/MedicationStatement/619b5df1-9380-459a-86d0-bfc2f250ea62" />
        <resource>
            <MedicationStatement>
                <id value="619b5df1-9380-459a-86d0-bfc2f250ea62" />
                <contained>
                    <Medication>
                        <id value="cont1" />
                        <code>
                            <coding>
                                <system value="urn:oid:2.51.1.1" />
                                <code value="7680288400476" />
                                <display value="Valium Tabl 5 mg 100 Stk" />
                            </coding>
                            <text value="VALIUM Tabl 5 mg" />
                        </code>
                        <form>
                            <coding>
                                <system value="urn:oid:0.4.0.127.0.16.1.1.2.1" />
                                <code value="10219000" />
                                <display value="Tablet" />
                            </coding>
                        </form>
                        <amount>
                            <numerator>
                                <value value="100" />
                                <unit value="Piece" />
                                <system value="http://unitsofmeasure.org" />
                                <code value="{Piece}" />
                            </numerator>
                            <denominator>
                                <value value="1" />
                                <unit value="Package" />
                                <system value="http://unitsofmeasure.org" />
                                <code value="{Package}" />
                            </denominator>
                        </amount>
                        <ingredient>
                            <itemCodeableConcept>
                                <coding>
                                    <system value="http://snomed.info/sct" />
                                    <code value="387264003" />
                                    <display value="Diazepam (substance)" />
                                </coding>
                                <text value="Diazepam (substance)" />
                            </itemCodeableConcept>
                            <strength>
                                <numerator>
                                    <value value="5" />
                                    <unit value="milligram" />
                                    <system value="http://unitsofmeasure.org" />
                                    <code value="mg" />
                                </numerator>
                                <denominator>
                                    <value value="1" />
                                    <unit value="Tablet (unit of presentation)" />
                                    <system value="http://snomed.info/sct" />
                                    <code value="732936001" />
                                </denominator>
                            </strength>
                        </ingredient>
                    </Medication>
                </contained>
                <extension url="http://hcisolutions.ch/ig/analyzer/StructureDefinition/infoinputdocument">
                    <extension url="http://hcisolutions.ch/ig/analyzer/StructureDefinition/inputdocumentsource">
                        <valueString value="Cara" />
                    </extension>
                    <extension url="http://hcisolutions.ch/ig/analyzer/StructureDefinition/inputdocumenttype">
                        <valueCodeableConcept>
                            <coding>
                                <system value="http://loinc.org" />
                                <code value="56445-0" />
                            </coding>
                            <text value="Medication Card" />
                        </valueCodeableConcept>
                    </extension>
                    <extension url="http://hcisolutions.ch/ig/analyzer/StructureDefinition/inputdocumentdate">
                        <valueDateTime value="2020-02-01T11:00:00+01:00" />
                    </extension>
                    <extension url="http://hcisolutions.ch/ig/analyzer/StructureDefinition/parentdocumentid">
                        <valueIdentifier>
                            <system value="urn:ietf:rfc:3986" />
                            <value value="urn:uuid:26d3dff7-ab05-4737-a49c-5eccd3359a2a" />
                        </valueIdentifier>
                    </extension>
                </extension>
                <identifier>
                    <system value="urn:ietf:rfc:3986" />
                    <value value="urn:uuid:e2a9c14c-5ba7-4284-861a-d6e53eb8b492" />
                </identifier>
                <status value="active" />
                <category>
                    <coding>
                        <system value="http://www.whocc.no/atc" />
                        <code value="N" />
                        <display value="Nervensystem" />
                    </coding>
                </category>
                <medicationReference>
                    <reference value="#cont1" />
                </medicationReference>
                <subject>
                    <reference value="Patient/bc6cbdec-ba80-40a9-8d38-692187092976" />
                </subject>
                <informationSource>
                    <reference value="PractitionerRole/09dccf3f-1e18-4c09-9ebc-8cf769dc6b4e" />
                </informationSource>
                <reasonCode>
                    <text value="Beruhigung" />
                </reasonCode>
                <dosage>
                    <timing>
                        <repeat>
                            <boundsPeriod>
                                <start value="2020-02-01" />
                            </boundsPeriod>
                            <when value="NIGHT" />
                        </repeat>
                    </timing>
                    <route>
                        <coding>
                            <system value="urn:oid:0.4.0.127.0.16.1.1.2.1" />
                            <code value="20053000" />
                            <display value="Oral use" />
                        </coding>
                    </route>
                    <doseAndRate>
                        <doseQuantity>
                            <value value="2" />
                            <unit value="Tablet (unit of presentation)" />
                            <system value="http://snomed.info/sct" />
                            <code value="732936001" />
                        </doseQuantity>
                    </doseAndRate>
                </dosage>
            </MedicationStatement>
        </resource>
    </entry>
    <entry>
        <fullUrl value="https://int.documedis.hcisolutions.ch/CE/mda/2020-01/MedicationStatement/3987eed3-a5a6-4de9-b8b6-73daac856280" />
        <resource>
            <MedicationStatement>
                <id value="3987eed3-a5a6-4de9-b8b6-73daac856280" />
                <contained>
                    <Medication>
                        <id value="cont1" />
                        <code>
                            <coding>
                                <system value="urn:oid:2.51.1.1" />
                                <code value="7680288400711" />
                                <display value="Valium Tabl 10 mg 100 Stk" />
                            </coding>
                            <text value="VALIUM Tabl 10 mg" />
                        </code>
                        <form>
                            <coding>
                                <system value="urn:oid:0.4.0.127.0.16.1.1.2.1" />
                                <code value="10219000" />
                                <display value="Tablet" />
                            </coding>
                        </form>
                        <amount>
                            <numerator>
                                <value value="100" />
                                <unit value="Piece" />
                                <system value="http://unitsofmeasure.org" />
                                <code value="{Piece}" />
                            </numerator>
                            <denominator>
                                <value value="1" />
                                <unit value="Package" />
                                <system value="http://unitsofmeasure.org" />
                                <code value="{Package}" />
                            </denominator>
                        </amount>
                        <ingredient>
                            <itemCodeableConcept>
                                <coding>
                                    <system value="http://snomed.info/sct" />
                                    <code value="387264003" />
                                    <display value="Diazepam (substance)" />
                                </coding>
                                <text value="Diazepam (substance)" />
                            </itemCodeableConcept>
                            <strength>
                                <numerator>
                                    <value value="10" />
                                    <unit value="milligram" />
                                    <system value="http://unitsofmeasure.org" />
                                    <code value="mg" />
                                </numerator>
                                <denominator>
                                    <value value="1" />
                                    <unit value="Tablet (unit of presentation)" />
                                    <system value="http://snomed.info/sct" />
                                    <code value="732936001" />
                                </denominator>
                            </strength>
                        </ingredient>
                    </Medication>
                </contained>
                <extension url="http://hcisolutions.ch/ig/analyzer/StructureDefinition/infoinputdocument">
                    <extension url="http://hcisolutions.ch/ig/analyzer/StructureDefinition/inputdocumentsource">
                        <valueString value="Cara" />
                    </extension>
                    <extension url="http://hcisolutions.ch/ig/analyzer/StructureDefinition/inputdocumenttype">
                        <valueCodeableConcept>
                            <coding>
                                <system value="http://loinc.org" />
                                <code value="56445-0" />
                            </coding>
                            <text value="Medication Card" />
                        </valueCodeableConcept>
                    </extension>
                    <extension url="http://hcisolutions.ch/ig/analyzer/StructureDefinition/inputdocumentdate">
                        <valueDateTime value="2020-02-01T11:30:00+01:00" />
                    </extension>
                    <extension url="http://hcisolutions.ch/ig/analyzer/StructureDefinition/parentdocumentid">
                        <valueIdentifier>
                            <system value="urn:ietf:rfc:3986" />
                            <value value="urn:uuid:26d3dff7-ab05-4737-a49c-5eccd3359a2b" />
                        </valueIdentifier>
                    </extension>
                </extension>
                <identifier>
                    <system value="urn:ietf:rfc:3986" />
                    <value value="urn:uuid:f56851dd-d111-4285-a5ed-1814d4dbf1cb" />
                </identifier>
                <status value="active" />
                <category>
                    <coding>
                        <system value="http://www.whocc.no/atc" />
                        <code value="N" />
                        <display value="Nervensystem" />
                    </coding>
                </category>
                <medicationReference>
                    <reference value="#cont1" />
                </medicationReference>
                <subject>
                    <reference value="Patient/bc6cbdec-ba80-40a9-8d38-692187092976" />
                </subject>
                <informationSource>
                    <reference value="PractitionerRole/f620b920-91b4-46f1-900a-8722370b153d" />
                </informationSource>
                <reasonCode>
                    <text value="Beruhigung" />
                </reasonCode>
                <dosage>
                    <timing>
                        <repeat>
                            <boundsPeriod>
                                <start value="2020-02-01" />
                            </boundsPeriod>
                            <when value="NIGHT" />
                        </repeat>
                    </timing>
                    <route>
                        <coding>
                            <system value="urn:oid:0.4.0.127.0.16.1.1.2.1" />
                            <code value="20053000" />
                            <display value="Oral use" />
                        </coding>
                    </route>
                    <doseAndRate>
                        <doseQuantity>
                            <value value="1" />
                            <unit value="Tablet (unit of presentation)" />
                            <system value="http://snomed.info/sct" />
                            <code value="732936001" />
                        </doseQuantity>
                    </doseAndRate>
                </dosage>
            </MedicationStatement>
        </resource>
    </entry>
    <entry>
        <fullUrl value="https://int.documedis.hcisolutions.ch/CE/mda/2020-01/MedicationStatement/42b39b91-26e9-4a5c-a66e-c3403498775d" />
        <resource>
            <MedicationStatement>
                <id value="42b39b91-26e9-4a5c-a66e-c3403498775d" />
                <contained>
                    <Medication>
                        <id value="cont1" />
                        <code>
                            <coding>
                                <system value="urn:oid:2.51.1.1" />
                                <code value="7680288400711" />
                                <display value="Valium Tabl 10 mg 100 Stk" />
                            </coding>
                            <text value="VALIUM Tabl 10 mg" />
                        </code>
                        <form>
                            <coding>
                                <system value="urn:oid:0.4.0.127.0.16.1.1.2.1" />
                                <code value="10219000" />
                                <display value="Tablet" />
                            </coding>
                        </form>
                        <amount>
                            <numerator>
                                <value value="100" />
                                <unit value="Piece" />
                                <system value="http://unitsofmeasure.org" />
                                <code value="{Piece}" />
                            </numerator>
                            <denominator>
                                <value value="1" />
                                <unit value="Package" />
                                <system value="http://unitsofmeasure.org" />
                                <code value="{Package}" />
                            </denominator>
                        </amount>
                        <ingredient>
                            <itemCodeableConcept>
                                <coding>
                                    <system value="http://snomed.info/sct" />
                                    <code value="387264003" />
                                    <display value="Diazepam (substance)" />
                                </coding>
                                <text value="Diazepam (substance)" />
                            </itemCodeableConcept>
                            <strength>
                                <numerator>
                                    <value value="10" />
                                    <unit value="milligram" />
                                    <system value="http://unitsofmeasure.org" />
                                    <code value="mg" />
                                </numerator>
                                <denominator>
                                    <value value="1" />
                                    <unit value="Tablet (unit of presentation)" />
                                    <system value="http://snomed.info/sct" />
                                    <code value="732936001" />
                                </denominator>
                            </strength>
                        </ingredient>
                    </Medication>
                </contained>
                <identifier>
                    <system value="urn:ietf:rfc:3986" />
                    <value value="urn:uuid:42b39b91-26e9-4a5c-a66e-c3403498775d" />
                </identifier>
                <status value="unknown" />
                <category>
                    <coding>
                        <system value="http://www.whocc.no/atc" />
                        <code value="N" />
                        <display value="Nervensystem" />
                    </coding>
                </category>
                <medicationReference>
                    <reference value="#cont1" />
                </medicationReference>
                <subject>
                    <reference value="Patient/bc6cbdec-ba80-40a9-8d38-692187092976" />
                </subject>
                <informationSource>
                    <reference value="PractitionerRole/f620b920-91b4-46f1-900a-8722370b153d" />
                </informationSource>
                <derivedFrom>
                    <reference value="MedicationStatement/619b5df1-9380-459a-86d0-bfc2f250ea62" />
                </derivedFrom>
                <derivedFrom>
                    <reference value="Observation/f4138deb-5812-47aa-9f73-0ec506a34e28" />
                </derivedFrom>
                <derivedFrom>
                    <reference value="Observation/e7293aa7-5916-4d03-8605-df2dccb3030f" />
                </derivedFrom>
                <derivedFrom>
                    <reference value="MedicationStatement/3987eed3-a5a6-4de9-b8b6-73daac856280" />
                </derivedFrom>
                <dosage>
                    <timing>
                        <repeat>
                            <boundsPeriod>
                                <start value="2020-02-01" />
                            </boundsPeriod>
                            <when value="NIGHT" />
                        </repeat>
                    </timing>
                    <route>
                        <coding>
                            <system value="urn:oid:0.4.0.127.0.16.1.1.2.1" />
                            <code value="20053000" />
                            <display value="Oral use" />
                        </coding>
                    </route>
                    <doseAndRate>
                        <doseQuantity>
                            <value value="1" />
                            <unit value="Tablet (unit of presentation)" />
                            <system value="http://snomed.info/sct" />
                            <code value="732936001" />
                        </doseQuantity>
                    </doseAndRate>
                </dosage>
            </MedicationStatement>
        </resource>
    </entry>
    <entry>
        <fullUrl value="https://int.documedis.hcisolutions.ch/CE/mda/2020-01/Observation/f4138deb-5812-47aa-9f73-0ec506a34e28" />
        <resource>
            <Observation>
                <id value="f4138deb-5812-47aa-9f73-0ec506a34e28" />
                <identifier>
                    <system value="urn:ietf:rfc:3986" />
                    <value value="urn:uuid:f4138deb-5812-47aa-9f73-0ec506a34e28" />
                </identifier>
                <status value="final" />
                <code>
                    <coding>
                        <system value="urn:oid:1.3.6.1.4.1.19376.1.9.2.1" />
                        <code value="OK" />
                    </coding>
                </code>
                <valueCodeableConcept>
                    <coding>
                        <system value="http://hcisolutions.ch/ig/analyzer/CodeSystem/history-changes" />
                        <code value="sameMedication" />
                    </coding>
                </valueCodeableConcept>
            </Observation>
        </resource>
    </entry>
    <entry>
        <fullUrl value="https://int.documedis.hcisolutions.ch/CE/mda/2020-01/Observation/e7293aa7-5916-4d03-8605-df2dccb3030f" />
        <resource>
            <Observation>
                <id value="e7293aa7-5916-4d03-8605-df2dccb3030f" />
                <identifier>
                    <system value="urn:ietf:rfc:3986" />
                    <value value="urn:uuid:e7293aa7-5916-4d03-8605-df2dccb3030f" />
                </identifier>
                <status value="final" />
                <code>
                    <coding>
                        <system value="urn:oid:1.3.6.1.4.1.19376.1.9.2.1" />
                        <code value="CHANGE" />
                    </coding>
                </code>
                <valueCodeableConcept>
                    <coding>
                        <system value="http://hcisolutions.ch/ig/analyzer/CodeSystem/history-changes" />
                        <code value="changePractitioner" />
                    </coding>
                </valueCodeableConcept>
            </Observation>
        </resource>
    </entry>
</Bundle>