<Bundle xmlns="http://hl7.org/fhir">
    <id value="A2-ConsolidatedMedicationCard" />
    <identifier>
        <system value="urn:ietf:rfc:3986" />
        <value value="urn:uuid:08fc3812-c46b-43bc-bfd7-ded3af7c2786" />
    </identifier>
    <type value="document" />
    <timestamp value="2023-02-14T08:02:12.9400854+00:00" />
    <entry>
        <fullUrl value="https://int.documedis.hcisolutions.ch/CE/mda/2020-01/Composition/08fc3812-c46b-43bc-bfd7-ded3af7c2786" />
        <resource>
            <Composition>
                <id value="08fc3812-c46b-43bc-bfd7-ded3af7c2786" />
                <identifier>
                    <system value="urn:ietf:rfc:3986" />
                    <value value="urn:uuid:08fc3812-c46b-43bc-bfd7-ded3af7c2786" />
                </identifier>
                <status value="final" />
                <type>
                    <coding>
                        <system value="http://snomed.info/sct" />
                        <code value="721912009" />
                    </coding>
                </type>
                <subject>
                    <reference value="Patient/f7b9d2ea-a137-4c81-9473-debb5ad8a940" />
                </subject>
                <date value="2023-02-14T08:02:12.940+00:00" />
                <author>
                    <reference value="Device/Analyzer" />
                </author>
                <title value="Medikationsplan" />
                <section>
                    <entry>
                        <reference value="MedicationStatement/32784107-cad4-4d3a-8fdf-1b706b1adcd5" />
                    </entry>
                </section>
            </Composition>
        </resource>
    </entry>
    <entry>
        <fullUrl value="https://int.documedis.hcisolutions.ch/CE/mda/2020-01/Device/Analyzer" />
        <resource>
            <Device>
                <id value="Analyzer" />
                <deviceName>
                    <name value="Documedis Medical Data Analyzer CE" />
                    <type value="user-friendly-name" />
                </deviceName>
                <version>
                    <value value="0.0.0.1" />
                </version>
            </Device>
        </resource>
    </entry>
    <entry>
        <fullUrl value="https://int.documedis.hcisolutions.ch/CE/mda/2020-01/Patient/f7b9d2ea-a137-4c81-9473-debb5ad8a940" />
        <resource>
            <Patient>
                <id value="f7b9d2ea-a137-4c81-9473-debb5ad8a940" />
                <identifier>
                    <type>
                        <coding>
                            <system value="http://terminology.hl7.org/CodeSystem/v2-0203" />
                            <code value="MR" />
                        </coding>
                    </type>
                    <system value="urn:oid:2.999.1" />
                    <value value="11111111" />
                </identifier>
                <name>
                    <family value="Wegmüller" />
                    <given value="Monika" />
                </name>
                <gender value="female" />
                <birthDate value="1943-05-15" />
                <address>
                    <line value="Wiesenstr. 12" />
                    <city value="Zürich" />
                    <postalCode value="8003" />
                    <country value="CH" />
                </address>
                <communication>
                    <language>
                        <coding>
                            <system value="urn:ietf:bcp:47" />
                            <code value="de-CH" />
                            <display value="German (Region=Switzerland)" />
                        </coding>
                    </language>
                    <preferred value="true" />
                </communication>
            </Patient>
        </resource>
    </entry>
    <entry>
        <fullUrl value="https://int.documedis.hcisolutions.ch/CE/mda/2020-01/PractitionerRole/316d3ff9-378d-44c2-b0ae-afe00a635725" />
        <resource>
            <PractitionerRole>
                <id value="316d3ff9-378d-44c2-b0ae-afe00a635725" />
                <practitioner>
                    <reference value="Practitioner/98c153f5-4c79-4699-a78a-6e0c71cfdb0b" />
                </practitioner>
                <organization>
                    <reference value="Organization/fc2d3615-21d1-4e12-b8a6-e5c4df5a6292" />
                </organization>
            </PractitionerRole>
        </resource>
    </entry>
    <entry>
        <fullUrl value="https://int.documedis.hcisolutions.ch/CE/mda/2020-01/Practitioner/98c153f5-4c79-4699-a78a-6e0c71cfdb0b" />
        <resource>
            <Practitioner>
                <id value="98c153f5-4c79-4699-a78a-6e0c71cfdb0b" />
                <identifier>
                    <system value="urn:oid:2.51.1.3" />
                    <value value="7601023234613" />
                </identifier>
                <name>
                    <family value="Dupont" />
                    <given value="Hausarzt" />
                </name>
            </Practitioner>
        </resource>
    </entry>
    <entry>
        <fullUrl value="https://int.documedis.hcisolutions.ch/CE/mda/2020-01/Organization/fc2d3615-21d1-4e12-b8a6-e5c4df5a6292" />
        <resource>
            <Organization>
                <id value="fc2d3615-21d1-4e12-b8a6-e5c4df5a6292" />
                <identifier>
                    <system value="urn:oid:2.51.1.3" />
                    <value value="7601023234613" />
                </identifier>
                <name value="Hausarzt" />
                <address>
                    <line value="Dupontstrasse" />
                    <city value="Bern" />
                    <postalCode value="3000" />
                    <country value="CH" />
                </address>
            </Organization>
        </resource>
    </entry>
    <entry>
        <fullUrl value="https://int.documedis.hcisolutions.ch/CE/mda/2020-01/PractitionerRole/8d4a5dfb-c86b-4145-9804-32f5ce199532" />
        <resource>
            <PractitionerRole>
                <id value="8d4a5dfb-c86b-4145-9804-32f5ce199532" />
                <practitioner>
                    <reference value="Practitioner/2f7e8f68-2a1b-4c9d-9c23-921680245818" />
                </practitioner>
                <organization>
                    <reference value="Organization/84dcab25-719b-4bff-b2cb-dea637fcbb99" />
                </organization>
            </PractitionerRole>
        </resource>
    </entry>
    <entry>
        <fullUrl value="https://int.documedis.hcisolutions.ch/CE/mda/2020-01/Practitioner/2f7e8f68-2a1b-4c9d-9c23-921680245818" />
        <resource>
            <Practitioner>
                <id value="2f7e8f68-2a1b-4c9d-9c23-921680245818" />
                <identifier>
                    <system value="urn:oid:2.51.1.3" />
                    <value value="7601000876546" />
                </identifier>
                <name>
                    <family value="Apotheker" />
                    <given value="Andreas" />
                </name>
            </Practitioner>
        </resource>
    </entry>
    <entry>
        <fullUrl value="https://int.documedis.hcisolutions.ch/CE/mda/2020-01/Organization/84dcab25-719b-4bff-b2cb-dea637fcbb99" />
        <resource>
            <Organization>
                <id value="84dcab25-719b-4bff-b2cb-dea637fcbb99" />
                <identifier>
                    <system value="urn:oid:2.51.1.3" />
                    <value value="7601000876546" />
                </identifier>
                <name value="Apotheke Gare" />
                <address>
                    <line value="Apothekerstrasse" />
                    <city value="Bern" />
                    <postalCode value="3000" />
                    <country value="CH" />
                </address>
            </Organization>
        </resource>
    </entry>
    <entry>
        <fullUrl value="https://int.documedis.hcisolutions.ch/CE/mda/2020-01/MedicationStatement/1ad094be-eccb-47b2-80f0-80e6977f8d33" />
        <resource>
            <MedicationStatement>
                <id value="1ad094be-eccb-47b2-80f0-80e6977f8d33" />
                <contained>
                    <Medication>
                        <id value="cont1" />
                        <code>
                            <coding>
                                <system value="urn:oid:2.51.1.1" />
                                <code value="7680288400476" />
                                <display value="Valium Tabl 5 mg 100 Stk" />
                            </coding>
                            <text value="VALIUM Tabl 5 mg" />
                        </code>
                        <form>
                            <coding>
                                <system value="urn:oid:0.4.0.127.0.16.1.1.2.1" />
                                <code value="10219000" />
                                <display value="Tablet" />
                            </coding>
                        </form>
                        <amount>
                            <numerator>
                                <value value="100" />
                                <unit value="Piece" />
                                <system value="http://unitsofmeasure.org" />
                                <code value="{Piece}" />
                            </numerator>
                            <denominator>
                                <value value="1" />
                                <unit value="Package" />
                                <system value="http://unitsofmeasure.org" />
                                <code value="{Package}" />
                            </denominator>
                        </amount>
                        <ingredient>
                            <itemCodeableConcept>
                                <coding>
                                    <system value="http://snomed.info/sct" />
                                    <code value="387264003" />
                                    <display value="Diazepam (substance)" />
                                </coding>
                                <text value="Diazepam (substance)" />
                            </itemCodeableConcept>
                            <strength>
                                <numerator>
                                    <value value="5" />
                                    <unit value="milligram" />
                                    <system value="http://unitsofmeasure.org" />
                                    <code value="mg" />
                                </numerator>
                                <denominator>
                                    <value value="1" />
                                    <unit value="Tablet (unit of presentation)" />
                                    <system value="http://snomed.info/sct" />
                                    <code value="732936001" />
                                </denominator>
                            </strength>
                        </ingredient>
                    </Medication>
                </contained>
                <extension url="http://hcisolutions.ch/ig/analyzer/StructureDefinition/infoinputdocument">
                    <extension url="http://hcisolutions.ch/ig/analyzer/StructureDefinition/inputdocumentsource">
                        <valueString value="Cara" />
                    </extension>
                    <extension url="http://hcisolutions.ch/ig/analyzer/StructureDefinition/inputdocumenttype">
                        <valueCodeableConcept>
                            <coding>
                                <system value="http://loinc.org" />
                                <code value="56445-0" />
                            </coding>
                            <text value="Medication Card" />
                        </valueCodeableConcept>
                    </extension>
                    <extension url="http://hcisolutions.ch/ig/analyzer/StructureDefinition/inputdocumentdate">
                        <valueDateTime value="2020-02-01T11:00:00+01:00" />
                    </extension>
                    <extension url="http://hcisolutions.ch/ig/analyzer/StructureDefinition/parentdocumentid">
                        <valueIdentifier>
                            <system value="urn:ietf:rfc:3986" />
                            <value value="urn:uuid:26d3dff7-ab05-4737-a49c-5eccd3359a2a" />
                        </valueIdentifier>
                    </extension>
                </extension>
                <identifier>
                    <system value="urn:ietf:rfc:3986" />
                    <value value="urn:uuid:e2a9c14c-5ba7-4284-861a-d6e53eb8b492" />
                </identifier>
                <status value="active" />
                <category>
                    <coding>
                        <system value="http://www.whocc.no/atc" />
                        <code value="N" />
                        <display value="Nervensystem" />
                    </coding>
                </category>
                <medicationReference>
                    <reference value="#cont1" />
                </medicationReference>
                <subject>
                    <reference value="Patient/f7b9d2ea-a137-4c81-9473-debb5ad8a940" />
                </subject>
                <informationSource>
                    <reference value="PractitionerRole/316d3ff9-378d-44c2-b0ae-afe00a635725" />
                </informationSource>
                <reasonCode>
                    <text value="Beruhigung" />
                </reasonCode>
                <dosage>
                    <timing>
                        <repeat>
                            <boundsPeriod>
                                <start value="2020-02-01" />
                            </boundsPeriod>
                            <when value="NIGHT" />
                        </repeat>
                    </timing>
                    <route>
                        <coding>
                            <system value="urn:oid:0.4.0.127.0.16.1.1.2.1" />
                            <code value="20053000" />
                            <display value="Oral use" />
                        </coding>
                    </route>
                    <doseAndRate>
                        <doseQuantity>
                            <value value="2" />
                            <unit value="Tablet (unit of presentation)" />
                            <system value="http://snomed.info/sct" />
                            <code value="732936001" />
                        </doseQuantity>
                    </doseAndRate>
                </dosage>
            </MedicationStatement>
        </resource>
    </entry>
    <entry>
        <fullUrl value="https://int.documedis.hcisolutions.ch/CE/mda/2020-01/MedicationStatement/d04ccb99-fb68-418a-8c2f-34bf88af35ee" />
        <resource>
            <MedicationStatement>
                <id value="d04ccb99-fb68-418a-8c2f-34bf88af35ee" />
                <contained>
                    <Medication>
                        <id value="cont1" />
                        <code>
                            <coding>
                                <system value="urn:oid:2.51.1.1" />
                                <code value="7680288400711" />
                                <display value="Valium Tabl 10 mg 100 Stk" />
                            </coding>
                            <text value="VALIUM Tabl 10 mg" />
                        </code>
                        <form>
                            <coding>
                                <system value="urn:oid:0.4.0.127.0.16.1.1.2.1" />
                                <code value="10219000" />
                                <display value="Tablet" />
                            </coding>
                        </form>
                        <amount>
                            <numerator>
                                <value value="100" />
                                <unit value="Piece" />
                                <system value="http://unitsofmeasure.org" />
                                <code value="{Piece}" />
                            </numerator>
                            <denominator>
                                <value value="1" />
                                <unit value="Package" />
                                <system value="http://unitsofmeasure.org" />
                                <code value="{Package}" />
                            </denominator>
                        </amount>
                        <ingredient>
                            <itemCodeableConcept>
                                <coding>
                                    <system value="http://snomed.info/sct" />
                                    <code value="387264003" />
                                    <display value="Diazepam (substance)" />
                                </coding>
                                <text value="Diazepam (substance)" />
                            </itemCodeableConcept>
                            <strength>
                                <numerator>
                                    <value value="10" />
                                    <unit value="milligram" />
                                    <system value="http://unitsofmeasure.org" />
                                    <code value="mg" />
                                </numerator>
                                <denominator>
                                    <value value="1" />
                                    <unit value="Tablet (unit of presentation)" />
                                    <system value="http://snomed.info/sct" />
                                    <code value="732936001" />
                                </denominator>
                            </strength>
                        </ingredient>
                    </Medication>
                </contained>
                <extension url="http://hcisolutions.ch/ig/analyzer/StructureDefinition/infoinputdocument">
                    <extension url="http://hcisolutions.ch/ig/analyzer/StructureDefinition/inputdocumentsource">
                        <valueString value="Cara" />
                    </extension>
                    <extension url="http://hcisolutions.ch/ig/analyzer/StructureDefinition/inputdocumenttype">
                        <valueCodeableConcept>
                            <coding>
                                <system value="http://loinc.org" />
                                <code value="56445-0" />
                            </coding>
                            <text value="Medication Card" />
                        </valueCodeableConcept>
                    </extension>
                    <extension url="http://hcisolutions.ch/ig/analyzer/StructureDefinition/inputdocumentdate">
                        <valueDateTime value="2020-02-01T11:30:00+01:00" />
                    </extension>
                    <extension url="http://hcisolutions.ch/ig/analyzer/StructureDefinition/parentdocumentid">
                        <valueIdentifier>
                            <system value="urn:ietf:rfc:3986" />
                            <value value="urn:uuid:26d3dff7-ab05-4737-a49c-5eccd3359a2b" />
                        </valueIdentifier>
                    </extension>
                </extension>
                <identifier>
                    <system value="urn:ietf:rfc:3986" />
                    <value value="urn:uuid:f56851dd-d111-4285-a5ed-1814d4dbf1cb" />
                </identifier>
                <status value="active" />
                <category>
                    <coding>
                        <system value="http://www.whocc.no/atc" />
                        <code value="N" />
                        <display value="Nervensystem" />
                    </coding>
                </category>
                <medicationReference>
                    <reference value="#cont1" />
                </medicationReference>
                <subject>
                    <reference value="Patient/f7b9d2ea-a137-4c81-9473-debb5ad8a940" />
                </subject>
                <informationSource>
                    <reference value="PractitionerRole/8d4a5dfb-c86b-4145-9804-32f5ce199532" />
                </informationSource>
                <reasonCode>
                    <text value="Beruhigung" />
                </reasonCode>
                <dosage>
                    <timing>
                        <repeat>
                            <boundsPeriod>
                                <start value="2020-02-01" />
                            </boundsPeriod>
                            <when value="NIGHT" />
                        </repeat>
                    </timing>
                    <route>
                        <coding>
                            <system value="urn:oid:0.4.0.127.0.16.1.1.2.1" />
                            <code value="20053000" />
                            <display value="Oral use" />
                        </coding>
                    </route>
                    <doseAndRate>
                        <doseQuantity>
                            <value value="1" />
                            <unit value="Tablet (unit of presentation)" />
                            <system value="http://snomed.info/sct" />
                            <code value="732936001" />
                        </doseQuantity>
                    </doseAndRate>
                </dosage>
            </MedicationStatement>
        </resource>
    </entry>
    <entry>
        <fullUrl value="https://int.documedis.hcisolutions.ch/CE/mda/2020-01/MedicationStatement/32784107-cad4-4d3a-8fdf-1b706b1adcd5" />
        <resource>
            <MedicationStatement>
                <id value="32784107-cad4-4d3a-8fdf-1b706b1adcd5" />
                <contained>
                    <Medication>
                        <id value="cont1" />
                        <code>
                            <coding>
                                <system value="urn:oid:2.51.1.1" />
                                <code value="7680288400711" />
                                <display value="Valium Tabl 10 mg 100 Stk" />
                            </coding>
                            <text value="VALIUM Tabl 10 mg" />
                        </code>
                        <form>
                            <coding>
                                <system value="urn:oid:0.4.0.127.0.16.1.1.2.1" />
                                <code value="10219000" />
                                <display value="Tablet" />
                            </coding>
                        </form>
                        <amount>
                            <numerator>
                                <value value="100" />
                                <unit value="Piece" />
                                <system value="http://unitsofmeasure.org" />
                                <code value="{Piece}" />
                            </numerator>
                            <denominator>
                                <value value="1" />
                                <unit value="Package" />
                                <system value="http://unitsofmeasure.org" />
                                <code value="{Package}" />
                            </denominator>
                        </amount>
                        <ingredient>
                            <itemCodeableConcept>
                                <coding>
                                    <system value="http://snomed.info/sct" />
                                    <code value="387264003" />
                                    <display value="Diazepam (substance)" />
                                </coding>
                                <text value="Diazepam (substance)" />
                            </itemCodeableConcept>
                            <strength>
                                <numerator>
                                    <value value="10" />
                                    <unit value="milligram" />
                                    <system value="http://unitsofmeasure.org" />
                                    <code value="mg" />
                                </numerator>
                                <denominator>
                                    <value value="1" />
                                    <unit value="Tablet (unit of presentation)" />
                                    <system value="http://snomed.info/sct" />
                                    <code value="732936001" />
                                </denominator>
                            </strength>
                        </ingredient>
                    </Medication>
                </contained>
                <identifier>
                    <system value="urn:ietf:rfc:3986" />
                    <value value="urn:uuid:32784107-cad4-4d3a-8fdf-1b706b1adcd5" />
                </identifier>
                <status value="unknown" />
                <category>
                    <coding>
                        <system value="http://www.whocc.no/atc" />
                        <code value="N" />
                        <display value="Nervensystem" />
                    </coding>
                </category>
                <medicationReference>
                    <reference value="#cont1" />
                </medicationReference>
                <subject>
                    <reference value="Patient/f7b9d2ea-a137-4c81-9473-debb5ad8a940" />
                </subject>
                <informationSource>
                    <reference value="PractitionerRole/8d4a5dfb-c86b-4145-9804-32f5ce199532" />
                </informationSource>
                <derivedFrom>
                    <reference value="MedicationStatement/1ad094be-eccb-47b2-80f0-80e6977f8d33" />
                </derivedFrom>
                <derivedFrom>
                    <reference value="Observation/c6e6a87b-1284-4336-bf67-ba771b889c23" />
                </derivedFrom>
                <derivedFrom>
                    <reference value="Observation/038302f0-fe01-4985-bcf6-34657bc3d5ee" />
                </derivedFrom>
                <derivedFrom>
                    <reference value="MedicationStatement/d04ccb99-fb68-418a-8c2f-34bf88af35ee" />
                </derivedFrom>
                <dosage>
                    <timing>
                        <repeat>
                            <boundsPeriod>
                                <start value="2020-02-01" />
                            </boundsPeriod>
                            <when value="NIGHT" />
                        </repeat>
                    </timing>
                    <route>
                        <coding>
                            <system value="urn:oid:0.4.0.127.0.16.1.1.2.1" />
                            <code value="20053000" />
                            <display value="Oral use" />
                        </coding>
                    </route>
                    <doseAndRate>
                        <doseQuantity>
                            <value value="1" />
                            <unit value="Tablet (unit of presentation)" />
                            <system value="http://snomed.info/sct" />
                            <code value="732936001" />
                        </doseQuantity>
                    </doseAndRate>
                </dosage>
            </MedicationStatement>
        </resource>
    </entry>
    <entry>
        <fullUrl value="https://int.documedis.hcisolutions.ch/CE/mda/2020-01/Observation/c6e6a87b-1284-4336-bf67-ba771b889c23" />
        <resource>
            <Observation>
                <id value="c6e6a87b-1284-4336-bf67-ba771b889c23" />
                <identifier>
                    <system value="urn:ietf:rfc:3986" />
                    <value value="urn:uuid:c6e6a87b-1284-4336-bf67-ba771b889c23" />
                </identifier>
                <status value="final" />
                <code>
                    <coding>
                        <system value="urn:oid:1.3.6.1.4.1.19376.1.9.2.1" />
                        <code value="OK" />
                    </coding>
                </code>
                <valueCodeableConcept>
                    <coding>
                        <system value="http://hcisolutions.ch/ig/analyzer/CodeSystem/history-changes" />
                        <code value="sameMedication" />
                    </coding>
                </valueCodeableConcept>
            </Observation>
        </resource>
    </entry>
    <entry>
        <fullUrl value="https://int.documedis.hcisolutions.ch/CE/mda/2020-01/Observation/038302f0-fe01-4985-bcf6-34657bc3d5ee" />
        <resource>
            <Observation>
                <id value="038302f0-fe01-4985-bcf6-34657bc3d5ee" />
                <identifier>
                    <system value="urn:ietf:rfc:3986" />
                    <value value="urn:uuid:038302f0-fe01-4985-bcf6-34657bc3d5ee" />
                </identifier>
                <status value="final" />
                <code>
                    <coding>
                        <system value="urn:oid:1.3.6.1.4.1.19376.1.9.2.1" />
                        <code value="CHANGE" />
                    </coding>
                </code>
                <valueCodeableConcept>
                    <coding>
                        <system value="http://hcisolutions.ch/ig/analyzer/CodeSystem/history-changes" />
                        <code value="changePractitioner" />
                    </coding>
                </valueCodeableConcept>
            </Observation>
        </resource>
    </entry>
</Bundle>