<Bundle xmlns="http://hl7.org/fhir">
    <id value="A3-ConsolidatedMedicationCard" />
    <identifier>
        <system value="urn:ietf:rfc:3986" />
        <value value="urn:uuid:faa27b27-a2d9-4ac8-89a6-45b8c5f37bdf" />
    </identifier>
    <type value="document" />
    <timestamp value="2023-03-17T09:49:02.4467663+00:00" />
    <entry>
        <fullUrl value="https://int.documedis.hcisolutions.ch/CE/mda/2020-01/Composition/faa27b27-a2d9-4ac8-89a6-45b8c5f37bdf" />
        <resource>
            <Composition>
                <id value="faa27b27-a2d9-4ac8-89a6-45b8c5f37bdf" />
                <identifier>
                    <system value="urn:ietf:rfc:3986" />
                    <value value="urn:uuid:faa27b27-a2d9-4ac8-89a6-45b8c5f37bdf" />
                </identifier>
                <status value="final" />
                <type>
                    <coding>
                        <system value="http://snomed.info/sct" />
                        <code value="721912009" />
                    </coding>
                </type>
                <subject>
                    <reference value="Patient/e2f34850-5fea-496a-9d67-8b778ae19ff1" />
                </subject>
                <date value="2023-03-17T09:49:02.446+00:00" />
                <author>
                    <reference value="Device/Analyzer" />
                </author>
                <title value="Medikationsplan" />
                <section>
                    <entry>
                        <reference value="MedicationStatement/8d571535-3eae-4569-8559-55072273d26e" />
                    </entry>
                </section>
            </Composition>
        </resource>
    </entry>
    <entry>
        <fullUrl value="https://int.documedis.hcisolutions.ch/CE/mda/2020-01/Device/Analyzer" />
        <resource>
            <Device>
                <id value="Analyzer" />
                <deviceName>
                    <name value="Documedis Medical Data Analyzer CE" />
                    <type value="user-friendly-name" />
                </deviceName>
                <version>
                    <value value="0.0.0.1" />
                </version>
            </Device>
        </resource>
    </entry>
    <entry>
        <fullUrl value="https://int.documedis.hcisolutions.ch/CE/mda/2020-01/Patient/e2f34850-5fea-496a-9d67-8b778ae19ff1" />
        <resource>
            <Patient>
                <id value="e2f34850-5fea-496a-9d67-8b778ae19ff1" />
                <identifier>
                    <type>
                        <coding>
                            <system value="http://terminology.hl7.org/CodeSystem/v2-0203" />
                            <code value="MR" />
                        </coding>
                    </type>
                    <system value="urn:oid:2.999.1" />
                    <value value="11111111" />
                </identifier>
                <name>
                    <family value="Wegmüller" />
                    <given value="Monika" />
                </name>
                <gender value="female" />
                <birthDate value="1943-05-15" />
                <address>
                    <line value="Wiesenstr. 12" />
                    <city value="Zürich" />
                    <postalCode value="8003" />
                    <country value="CH" />
                </address>
                <communication>
                    <language>
                        <coding>
                            <system value="urn:ietf:bcp:47" />
                            <code value="de-CH" />
                            <display value="German (Region=Switzerland)" />
                        </coding>
                    </language>
                    <preferred value="true" />
                </communication>
            </Patient>
        </resource>
    </entry>
    <entry>
        <fullUrl value="https://int.documedis.hcisolutions.ch/CE/mda/2020-01/PractitionerRole/f564e802-143c-42ee-a35d-8d1c2489f85e" />
        <resource>
            <PractitionerRole>
                <id value="f564e802-143c-42ee-a35d-8d1c2489f85e" />
                <practitioner>
                    <reference value="Practitioner/3044b06c-b0c5-445b-94ee-8e06e157a65b" />
                </practitioner>
                <organization>
                    <reference value="Organization/db19b6d6-8bd7-4453-ba89-8f5b779e345c" />
                </organization>
            </PractitionerRole>
        </resource>
    </entry>
    <entry>
        <fullUrl value="https://int.documedis.hcisolutions.ch/CE/mda/2020-01/Practitioner/3044b06c-b0c5-445b-94ee-8e06e157a65b" />
        <resource>
            <Practitioner>
                <id value="3044b06c-b0c5-445b-94ee-8e06e157a65b" />
                <identifier>
                    <system value="urn:oid:2.51.1.3" />
                    <value value="7601023234613" />
                </identifier>
                <name>
                    <family value="Dupont" />
                    <given value="Hausarzt" />
                </name>
            </Practitioner>
        </resource>
    </entry>
    <entry>
        <fullUrl value="https://int.documedis.hcisolutions.ch/CE/mda/2020-01/Organization/db19b6d6-8bd7-4453-ba89-8f5b779e345c" />
        <resource>
            <Organization>
                <id value="db19b6d6-8bd7-4453-ba89-8f5b779e345c" />
                <identifier>
                    <system value="urn:oid:2.51.1.3" />
                    <value value="7601023234613" />
                </identifier>
                <name value="Hausarzt" />
                <address>
                    <line value="Dupontstrasse" />
                    <city value="Bern" />
                    <postalCode value="3000" />
                    <country value="CH" />
                </address>
            </Organization>
        </resource>
    </entry>
    <entry>
        <fullUrl value="https://int.documedis.hcisolutions.ch/CE/mda/2020-01/MedicationStatement/d30cba93-ace9-4248-8440-34017c8bc80a" />
        <resource>
            <MedicationStatement>
                <id value="d30cba93-ace9-4248-8440-34017c8bc80a" />
                <contained>
                    <Medication>
                        <id value="cont1" />
                        <code>
                            <coding>
                                <system value="urn:oid:2.51.1.1" />
                                <code value="7680460380299" />
                                <display value="Reniten Tabl 20 mg 98 Stk" />
                            </coding>
                            <text value="RENITEN Tabl 20 mg" />
                        </code>
                        <form>
                            <coding>
                                <system value="urn:oid:0.4.0.127.0.16.1.1.2.1" />
                                <code value="10219000" />
                                <display value="Tablet" />
                            </coding>
                        </form>
                        <amount>
                            <numerator>
                                <value value="98" />
                                <unit value="Piece" />
                                <system value="http://unitsofmeasure.org" />
                                <code value="{Piece}" />
                            </numerator>
                            <denominator>
                                <value value="1" />
                                <unit value="Package" />
                                <system value="http://unitsofmeasure.org" />
                                <code value="{Package}" />
                            </denominator>
                        </amount>
                        <ingredient>
                            <itemCodeableConcept>
                                <coding>
                                    <system value="http://snomed.info/sct" />
                                    <code value="387165009" />
                                    <display value="Enalapril maleate (substance)" />
                                </coding>
                                <text value="Enalapril maleate (substance)" />
                            </itemCodeableConcept>
                            <strength>
                                <numerator>
                                    <value value="20" />
                                    <unit value="milligram" />
                                    <system value="http://unitsofmeasure.org" />
                                    <code value="mg" />
                                </numerator>
                                <denominator>
                                    <value value="1" />
                                    <unit value="Tablet (unit of presentation)" />
                                    <system value="http://snomed.info/sct" />
                                    <code value="732936001" />
                                </denominator>
                            </strength>
                        </ingredient>
                    </Medication>
                </contained>
                <extension url="http://hcisolutions.ch/ig/analyzer/StructureDefinition/infoinputdocument">
                    <extension url="http://hcisolutions.ch/ig/analyzer/StructureDefinition/inputdocumentsource">
                        <valueString value="Cara" />
                    </extension>
                    <extension url="http://hcisolutions.ch/ig/analyzer/StructureDefinition/inputdocumenttype">
                        <valueCodeableConcept>
                            <coding>
                                <system value="http://loinc.org" />
                                <code value="56445-0" />
                            </coding>
                            <text value="Medication Card" />
                        </valueCodeableConcept>
                    </extension>
                    <extension url="http://hcisolutions.ch/ig/analyzer/StructureDefinition/inputdocumentdate">
                        <valueDateTime value="2020-03-10T10:00:00+01:00" />
                    </extension>
                    <extension url="http://hcisolutions.ch/ig/analyzer/StructureDefinition/parentdocumentid">
                        <valueIdentifier>
                            <system value="urn:ietf:rfc:3986" />
                            <value value="urn:uuid:26d3dff7-ab05-4737-a49c-5eccd3359a3a" />
                        </valueIdentifier>
                    </extension>
                </extension>
                <identifier>
                    <system value="urn:ietf:rfc:3986" />
                    <value value="urn:uuid:64bff866-0059-4b56-ab89-d0a3e46fddda" />
                </identifier>
                <status value="active" />
                <category>
                    <coding>
                        <system value="http://www.whocc.no/atc" />
                        <code value="C" />
                        <display value="Kardiovaskuläres System" />
                    </coding>
                </category>
                <medicationReference>
                    <reference value="#cont1" />
                </medicationReference>
                <subject>
                    <reference value="Patient/e2f34850-5fea-496a-9d67-8b778ae19ff1" />
                </subject>
                <informationSource>
                    <reference value="PractitionerRole/f564e802-143c-42ee-a35d-8d1c2489f85e" />
                </informationSource>
                <reasonCode>
                    <text value="Bluthochdruck" />
                </reasonCode>
                <dosage>
                    <timing>
                        <repeat>
                            <boundsPeriod>
                                <start value="2020-03-10" />
                            </boundsPeriod>
                            <when value="MORN" />
                        </repeat>
                    </timing>
                    <route>
                        <coding>
                            <system value="urn:oid:0.4.0.127.0.16.1.1.2.1" />
                            <code value="20053000" />
                            <display value="Oral use" />
                        </coding>
                    </route>
                    <doseAndRate>
                        <doseQuantity>
                            <value value="1" />
                            <unit value="Tablet (unit of presentation)" />
                            <system value="http://snomed.info/sct" />
                            <code value="732936001" />
                        </doseQuantity>
                    </doseAndRate>
                </dosage>
            </MedicationStatement>
        </resource>
    </entry>
    <entry>
        <fullUrl value="https://int.documedis.hcisolutions.ch/CE/mda/2020-01/MedicationStatement/40cd4936-81c2-4fdc-b0dd-3adf6c0bc499" />
        <resource>
            <MedicationStatement>
                <id value="40cd4936-81c2-4fdc-b0dd-3adf6c0bc499" />
                <contained>
                    <Medication>
                        <id value="cont1" />
                        <code>
                            <coding>
                                <system value="urn:oid:2.51.1.1" />
                                <code value="7680460380299" />
                                <display value="Reniten Tabl 20 mg 98 Stk" />
                            </coding>
                            <text value="RENITEN Tabl 20 mg" />
                        </code>
                        <form>
                            <coding>
                                <system value="urn:oid:0.4.0.127.0.16.1.1.2.1" />
                                <code value="10219000" />
                                <display value="Tablet" />
                            </coding>
                        </form>
                        <amount>
                            <numerator>
                                <value value="98" />
                                <unit value="Piece" />
                                <system value="http://unitsofmeasure.org" />
                                <code value="{Piece}" />
                            </numerator>
                            <denominator>
                                <value value="1" />
                                <unit value="Package" />
                                <system value="http://unitsofmeasure.org" />
                                <code value="{Package}" />
                            </denominator>
                        </amount>
                        <ingredient>
                            <itemCodeableConcept>
                                <coding>
                                    <system value="http://snomed.info/sct" />
                                    <code value="387165009" />
                                    <display value="Enalapril maleate (substance)" />
                                </coding>
                                <text value="Enalapril maleate (substance)" />
                            </itemCodeableConcept>
                            <strength>
                                <numerator>
                                    <value value="20" />
                                    <unit value="milligram" />
                                    <system value="http://unitsofmeasure.org" />
                                    <code value="mg" />
                                </numerator>
                                <denominator>
                                    <value value="1" />
                                    <unit value="Tablet (unit of presentation)" />
                                    <system value="http://snomed.info/sct" />
                                    <code value="732936001" />
                                </denominator>
                            </strength>
                        </ingredient>
                    </Medication>
                </contained>
                <extension url="http://hcisolutions.ch/ig/analyzer/StructureDefinition/infoinputdocument">
                    <extension url="http://hcisolutions.ch/ig/analyzer/StructureDefinition/inputdocumentsource">
                        <valueString value="Cara" />
                    </extension>
                    <extension url="http://hcisolutions.ch/ig/analyzer/StructureDefinition/inputdocumenttype">
                        <valueCodeableConcept>
                            <coding>
                                <system value="http://loinc.org" />
                                <code value="56445-0" />
                            </coding>
                            <text value="Medication Card" />
                        </valueCodeableConcept>
                    </extension>
                    <extension url="http://hcisolutions.ch/ig/analyzer/StructureDefinition/inputdocumentdate">
                        <valueDateTime value="2020-03-10T17:00:00+01:00" />
                    </extension>
                    <extension url="http://hcisolutions.ch/ig/analyzer/StructureDefinition/parentdocumentid">
                        <valueIdentifier>
                            <system value="urn:ietf:rfc:3986" />
                            <value value="urn:uuid:26d3dff7-ab05-4737-a49c-5eccd3359a3b" />
                        </valueIdentifier>
                    </extension>
                </extension>
                <identifier>
                    <system value="urn:ietf:rfc:3986" />
                    <value value="urn:uuid:8bec35c0-7da4-4b28-aa8c-f657cf0c95b3" />
                </identifier>
                <status value="active" />
                <category>
                    <coding>
                        <system value="http://www.whocc.no/atc" />
                        <code value="C" />
                        <display value="Kardiovaskuläres System" />
                    </coding>
                </category>
                <medicationReference>
                    <reference value="#cont1" />
                </medicationReference>
                <subject>
                    <reference value="Patient/e2f34850-5fea-496a-9d67-8b778ae19ff1" />
                </subject>
                <informationSource>
                    <reference value="PractitionerRole/f564e802-143c-42ee-a35d-8d1c2489f85e" />
                </informationSource>
                <reasonCode>
                    <text value="Bluthochdruck" />
                </reasonCode>
                <dosage>
                    <timing>
                        <repeat>
                            <boundsPeriod>
                                <start value="2020-03-10" />
                            </boundsPeriod>
                            <when value="MORN" />
                        </repeat>
                    </timing>
                    <route>
                        <coding>
                            <system value="urn:oid:0.4.0.127.0.16.1.1.2.1" />
                            <code value="20053000" />
                            <display value="Oral use" />
                        </coding>
                    </route>
                    <doseAndRate>
                        <doseQuantity>
                            <value value="2" />
                            <unit value="Tablet (unit of presentation)" />
                            <system value="http://snomed.info/sct" />
                            <code value="732936001" />
                        </doseQuantity>
                    </doseAndRate>
                </dosage>
            </MedicationStatement>
        </resource>
    </entry>
    <entry>
        <fullUrl value="https://int.documedis.hcisolutions.ch/CE/mda/2020-01/MedicationStatement/8d571535-3eae-4569-8559-55072273d26e" />
        <resource>
            <MedicationStatement>
                <id value="8d571535-3eae-4569-8559-55072273d26e" />
                <contained>
                    <Medication>
                        <id value="cont1" />
                        <code>
                            <coding>
                                <system value="urn:oid:2.51.1.1" />
                                <code value="7680460380299" />
                                <display value="Reniten Tabl 20 mg 98 Stk" />
                            </coding>
                            <text value="RENITEN Tabl 20 mg" />
                        </code>
                        <form>
                            <coding>
                                <system value="urn:oid:0.4.0.127.0.16.1.1.2.1" />
                                <code value="10219000" />
                                <display value="Tablet" />
                            </coding>
                        </form>
                        <amount>
                            <numerator>
                                <value value="98" />
                                <unit value="Piece" />
                                <system value="http://unitsofmeasure.org" />
                                <code value="{Piece}" />
                            </numerator>
                            <denominator>
                                <value value="1" />
                                <unit value="Package" />
                                <system value="http://unitsofmeasure.org" />
                                <code value="{Package}" />
                            </denominator>
                        </amount>
                        <ingredient>
                            <itemCodeableConcept>
                                <coding>
                                    <system value="http://snomed.info/sct" />
                                    <code value="387165009" />
                                    <display value="Enalapril maleate (substance)" />
                                </coding>
                                <text value="Enalapril maleate (substance)" />
                            </itemCodeableConcept>
                            <strength>
                                <numerator>
                                    <value value="20" />
                                    <unit value="milligram" />
                                    <system value="http://unitsofmeasure.org" />
                                    <code value="mg" />
                                </numerator>
                                <denominator>
                                    <value value="1" />
                                    <unit value="Tablet (unit of presentation)" />
                                    <system value="http://snomed.info/sct" />
                                    <code value="732936001" />
                                </denominator>
                            </strength>
                        </ingredient>
                    </Medication>
                </contained>
                <identifier>
                    <system value="urn:ietf:rfc:3986" />
                    <value value="urn:uuid:8d571535-3eae-4569-8559-55072273d26e" />
                </identifier>
                <status value="unknown" />
                <category>
                    <coding>
                        <system value="http://www.whocc.no/atc" />
                        <code value="C" />
                        <display value="Kardiovaskuläres System" />
                    </coding>
                </category>
                <medicationReference>
                    <reference value="#cont1" />
                </medicationReference>
                <subject>
                    <reference value="Patient/e2f34850-5fea-496a-9d67-8b778ae19ff1" />
                </subject>
                <informationSource>
                    <reference value="PractitionerRole/f564e802-143c-42ee-a35d-8d1c2489f85e" />
                </informationSource>
                <derivedFrom>
                    <reference value="MedicationStatement/d30cba93-ace9-4248-8440-34017c8bc80a" />
                </derivedFrom>
                <derivedFrom>
                    <reference value="Observation/0a45072b-d588-4b8b-b383-3027489a97b5" />
                </derivedFrom>
                <derivedFrom>
                    <reference value="MedicationStatement/40cd4936-81c2-4fdc-b0dd-3adf6c0bc499" />
                </derivedFrom>
                <dosage>
                    <timing>
                        <repeat>
                            <boundsPeriod>
                                <start value="2020-03-10" />
                            </boundsPeriod>
                            <when value="MORN" />
                        </repeat>
                    </timing>
                    <route>
                        <coding>
                            <system value="urn:oid:0.4.0.127.0.16.1.1.2.1" />
                            <code value="20053000" />
                            <display value="Oral use" />
                        </coding>
                    </route>
                    <doseAndRate>
                        <doseQuantity>
                            <value value="2" />
                            <unit value="Tablet (unit of presentation)" />
                            <system value="http://snomed.info/sct" />
                            <code value="732936001" />
                        </doseQuantity>
                    </doseAndRate>
                </dosage>
            </MedicationStatement>
        </resource>
    </entry>
    <entry>
        <fullUrl value="https://int.documedis.hcisolutions.ch/CE/mda/2020-01/Observation/0a45072b-d588-4b8b-b383-3027489a97b5" />
        <resource>
            <Observation>
                <id value="0a45072b-d588-4b8b-b383-3027489a97b5" />
                <identifier>
                    <system value="urn:ietf:rfc:3986" />
                    <value value="urn:uuid:0a45072b-d588-4b8b-b383-3027489a97b5" />
                </identifier>
                <status value="final" />
                <code>
                    <coding>
                        <system value="urn:oid:1.3.6.1.4.1.19376.1.9.2.1" />
                        <code value="CHANGE" />
                    </coding>
                </code>
                <valueCodeableConcept>
                    <coding>
                        <system value="http://hcisolutions.ch/ig/analyzer/CodeSystem/history-changes" />
                        <code value="changeDosage" />
                    </coding>
                </valueCodeableConcept>
            </Observation>
        </resource>
    </entry>
</Bundle>