<Bundle xmlns="http://hl7.org/fhir">
    <id value="A4-ConsolidatedMedicationCard" />
    <identifier>
        <system value="urn:ietf:rfc:3986" />
        <value value="urn:uuid:be45eeea-a933-457f-9b38-6d1452bde239" />
    </identifier>
    <type value="document" />
    <timestamp value="2023-02-14T08:02:14.1718685+00:00" />
    <entry>
        <fullUrl value="https://int.documedis.hcisolutions.ch/CE/mda/2020-01/Composition/be45eeea-a933-457f-9b38-6d1452bde239" />
        <resource>
            <Composition>
                <id value="be45eeea-a933-457f-9b38-6d1452bde239" />
                <identifier>
                    <system value="urn:ietf:rfc:3986" />
                    <value value="urn:uuid:be45eeea-a933-457f-9b38-6d1452bde239" />
                </identifier>
                <status value="final" />
                <type>
                    <coding>
                        <system value="http://snomed.info/sct" />
                        <code value="721912009" />
                    </coding>
                </type>
                <subject>
                    <reference value="Patient/3ef4e2e8-5441-4c9a-b844-cf138c7a0308" />
                </subject>
                <date value="2023-02-14T08:02:14.171+00:00" />
                <author>
                    <reference value="Device/Analyzer" />
                </author>
                <title value="Medikationsplan" />
                <section>
                    <entry>
                        <reference value="MedicationStatement/59c8742f-ac99-4c61-9287-6df3ac2420cc" />
                    </entry>
                </section>
            </Composition>
        </resource>
    </entry>
    <entry>
        <fullUrl value="https://int.documedis.hcisolutions.ch/CE/mda/2020-01/Device/Analyzer" />
        <resource>
            <Device>
                <id value="Analyzer" />
                <deviceName>
                    <name value="Documedis Medical Data Analyzer CE" />
                    <type value="user-friendly-name" />
                </deviceName>
                <version>
                    <value value="0.0.0.1" />
                </version>
            </Device>
        </resource>
    </entry>
    <entry>
        <fullUrl value="https://int.documedis.hcisolutions.ch/CE/mda/2020-01/Patient/3ef4e2e8-5441-4c9a-b844-cf138c7a0308" />
        <resource>
            <Patient>
                <id value="3ef4e2e8-5441-4c9a-b844-cf138c7a0308" />
                <identifier>
                    <type>
                        <coding>
                            <system value="http://terminology.hl7.org/CodeSystem/v2-0203" />
                            <code value="MR" />
                        </coding>
                    </type>
                    <system value="urn:oid:2.999.1" />
                    <value value="11111111" />
                </identifier>
                <name>
                    <family value="Wegmüller" />
                    <given value="Monika" />
                </name>
                <gender value="female" />
                <birthDate value="1943-05-15" />
                <address>
                    <line value="Wiesenstr. 12" />
                    <city value="Zürich" />
                    <postalCode value="8003" />
                    <country value="CH" />
                </address>
                <communication>
                    <language>
                        <coding>
                            <system value="urn:ietf:bcp:47" />
                            <code value="de-CH" />
                            <display value="German (Region=Switzerland)" />
                        </coding>
                    </language>
                    <preferred value="true" />
                </communication>
            </Patient>
        </resource>
    </entry>
    <entry>
        <fullUrl value="https://int.documedis.hcisolutions.ch/CE/mda/2020-01/PractitionerRole/dede9385-3050-4695-8d8e-f429167d6cb3" />
        <resource>
            <PractitionerRole>
                <id value="dede9385-3050-4695-8d8e-f429167d6cb3" />
                <practitioner>
                    <reference value="Practitioner/a4e6265d-d437-45f8-8ce5-e9d836553875" />
                </practitioner>
                <organization>
                    <reference value="Organization/e27dedef-13a8-4a19-8ad8-8d2b6aa243c3" />
                </organization>
            </PractitionerRole>
        </resource>
    </entry>
    <entry>
        <fullUrl value="https://int.documedis.hcisolutions.ch/CE/mda/2020-01/Practitioner/a4e6265d-d437-45f8-8ce5-e9d836553875" />
        <resource>
            <Practitioner>
                <id value="a4e6265d-d437-45f8-8ce5-e9d836553875" />
                <identifier>
                    <system value="urn:oid:2.51.1.3" />
                    <value value="7601023234613" />
                </identifier>
                <name>
                    <family value="Dupont" />
                    <given value="Hausarzt" />
                </name>
            </Practitioner>
        </resource>
    </entry>
    <entry>
        <fullUrl value="https://int.documedis.hcisolutions.ch/CE/mda/2020-01/Organization/e27dedef-13a8-4a19-8ad8-8d2b6aa243c3" />
        <resource>
            <Organization>
                <id value="e27dedef-13a8-4a19-8ad8-8d2b6aa243c3" />
                <identifier>
                    <system value="urn:oid:2.51.1.3" />
                    <value value="7601023234613" />
                </identifier>
                <name value="Hausarzt" />
                <address>
                    <line value="Dupontstrasse" />
                    <city value="Bern" />
                    <postalCode value="3000" />
                    <country value="CH" />
                </address>
            </Organization>
        </resource>
    </entry>
    <entry>
        <fullUrl value="https://int.documedis.hcisolutions.ch/CE/mda/2020-01/PractitionerRole/040c78c6-bfc2-47f6-8faa-eae17962affa" />
        <resource>
            <PractitionerRole>
                <id value="040c78c6-bfc2-47f6-8faa-eae17962affa" />
                <practitioner>
                    <reference value="Practitioner/9144f4d8-2144-4e0c-afe2-87fb587a27d1" />
                </practitioner>
                <organization>
                    <reference value="Organization/9c36d67f-44ff-42be-b132-fa4fb2b2dfaa" />
                </organization>
            </PractitionerRole>
        </resource>
    </entry>
    <entry>
        <fullUrl value="https://int.documedis.hcisolutions.ch/CE/mda/2020-01/Practitioner/9144f4d8-2144-4e0c-afe2-87fb587a27d1" />
        <resource>
            <Practitioner>
                <id value="9144f4d8-2144-4e0c-afe2-87fb587a27d1" />
                <identifier>
                    <system value="urn:oid:2.51.1.3" />
                    <value value="7601000239891" />
                </identifier>
                <name>
                    <family value="Monney" />
                    <given value="Spezialist" />
                </name>
            </Practitioner>
        </resource>
    </entry>
    <entry>
        <fullUrl value="https://int.documedis.hcisolutions.ch/CE/mda/2020-01/Organization/9c36d67f-44ff-42be-b132-fa4fb2b2dfaa" />
        <resource>
            <Organization>
                <id value="9c36d67f-44ff-42be-b132-fa4fb2b2dfaa" />
                <identifier>
                    <system value="urn:oid:2.51.1.3" />
                    <value value="7601000239891" />
                </identifier>
                <name value="Spezialist" />
                <address>
                    <line value="Monneystrasse" />
                    <city value="Bern" />
                    <postalCode value="3000" />
                    <country value="CH" />
                </address>
            </Organization>
        </resource>
    </entry>
    <entry>
        <fullUrl value="https://int.documedis.hcisolutions.ch/CE/mda/2020-01/MedicationStatement/dc2b6491-0b14-47a6-8ff6-f1d5d048ccc1" />
        <resource>
            <MedicationStatement>
                <id value="dc2b6491-0b14-47a6-8ff6-f1d5d048ccc1" />
                <contained>
                    <Medication>
                        <id value="cont1" />
                        <code>
                            <coding>
                                <system value="urn:oid:2.51.1.1" />
                                <code value="7680460380299" />
                                <display value="Reniten Tabl 20 mg 98 Stk" />
                            </coding>
                            <text value="RENITEN Tabl 20 mg" />
                        </code>
                        <form>
                            <coding>
                                <system value="urn:oid:0.4.0.127.0.16.1.1.2.1" />
                                <code value="10219000" />
                                <display value="Tablet" />
                            </coding>
                        </form>
                        <amount>
                            <numerator>
                                <value value="98" />
                                <unit value="Piece" />
                                <system value="http://unitsofmeasure.org" />
                                <code value="{Piece}" />
                            </numerator>
                            <denominator>
                                <value value="1" />
                                <unit value="Package" />
                                <system value="http://unitsofmeasure.org" />
                                <code value="{Package}" />
                            </denominator>
                        </amount>
                        <ingredient>
                            <itemCodeableConcept>
                                <coding>
                                    <system value="http://snomed.info/sct" />
                                    <code value="387165009" />
                                    <display value="Enalapril maleate (substance)" />
                                </coding>
                                <text value="Enalapril maleate (substance)" />
                            </itemCodeableConcept>
                            <strength>
                                <numerator>
                                    <value value="20" />
                                    <unit value="milligram" />
                                    <system value="http://unitsofmeasure.org" />
                                    <code value="mg" />
                                </numerator>
                                <denominator>
                                    <value value="1" />
                                    <unit value="Tablet (unit of presentation)" />
                                    <system value="http://snomed.info/sct" />
                                    <code value="732936001" />
                                </denominator>
                            </strength>
                        </ingredient>
                    </Medication>
                </contained>
                <extension url="http://hcisolutions.ch/ig/analyzer/StructureDefinition/infoinputdocument">
                    <extension url="http://hcisolutions.ch/ig/analyzer/StructureDefinition/inputdocumentsource">
                        <valueString value="Cara" />
                    </extension>
                    <extension url="http://hcisolutions.ch/ig/analyzer/StructureDefinition/inputdocumenttype">
                        <valueCodeableConcept>
                            <coding>
                                <system value="http://loinc.org" />
                                <code value="56445-0" />
                            </coding>
                            <text value="Medication Card" />
                        </valueCodeableConcept>
                    </extension>
                    <extension url="http://hcisolutions.ch/ig/analyzer/StructureDefinition/inputdocumentdate">
                        <valueDateTime value="2020-03-01T11:00:00+01:00" />
                    </extension>
                    <extension url="http://hcisolutions.ch/ig/analyzer/StructureDefinition/parentdocumentid">
                        <valueIdentifier>
                            <system value="urn:ietf:rfc:3986" />
                            <value value="urn:uuid:26d3dff7-ab05-4737-a49c-5eccd3359a4a" />
                        </valueIdentifier>
                    </extension>
                </extension>
                <identifier>
                    <system value="urn:ietf:rfc:3986" />
                    <value value="urn:uuid:8467d8ef-0c21-4d1b-abc9-8721b4095ab8" />
                </identifier>
                <status value="active" />
                <category>
                    <coding>
                        <system value="http://www.whocc.no/atc" />
                        <code value="C" />
                        <display value="Kardiovaskuläres System" />
                    </coding>
                </category>
                <medicationReference>
                    <reference value="#cont1" />
                </medicationReference>
                <subject>
                    <reference value="Patient/3ef4e2e8-5441-4c9a-b844-cf138c7a0308" />
                </subject>
                <informationSource>
                    <reference value="PractitionerRole/dede9385-3050-4695-8d8e-f429167d6cb3" />
                </informationSource>
                <reasonCode>
                    <text value="Bluthochdruck" />
                </reasonCode>
                <dosage>
                    <timing>
                        <repeat>
                            <boundsPeriod>
                                <start value="2020-03-01" />
                            </boundsPeriod>
                            <when value="MORN" />
                        </repeat>
                    </timing>
                    <route>
                        <coding>
                            <system value="urn:oid:0.4.0.127.0.16.1.1.2.1" />
                            <code value="20053000" />
                            <display value="Oral use" />
                        </coding>
                    </route>
                    <doseAndRate>
                        <doseQuantity>
                            <value value="1" />
                            <unit value="Tablet (unit of presentation)" />
                            <system value="http://snomed.info/sct" />
                            <code value="732936001" />
                        </doseQuantity>
                    </doseAndRate>
                </dosage>
            </MedicationStatement>
        </resource>
    </entry>
    <entry>
        <fullUrl value="https://int.documedis.hcisolutions.ch/CE/mda/2020-01/MedicationStatement/d884e50f-ad89-4d7f-9ce6-6afbe22e8c6a" />
        <resource>
            <MedicationStatement>
                <id value="d884e50f-ad89-4d7f-9ce6-6afbe22e8c6a" />
                <contained>
                    <Medication>
                        <id value="cont1" />
                        <code>
                            <coding>
                                <system value="urn:oid:2.51.1.1" />
                                <code value="7680460380299" />
                                <display value="Reniten Tabl 20 mg 98 Stk" />
                            </coding>
                            <text value="RENITEN Tabl 20 mg" />
                        </code>
                        <form>
                            <coding>
                                <system value="urn:oid:0.4.0.127.0.16.1.1.2.1" />
                                <code value="10219000" />
                                <display value="Tablet" />
                            </coding>
                        </form>
                        <amount>
                            <numerator>
                                <value value="98" />
                                <unit value="Piece" />
                                <system value="http://unitsofmeasure.org" />
                                <code value="{Piece}" />
                            </numerator>
                            <denominator>
                                <value value="1" />
                                <unit value="Package" />
                                <system value="http://unitsofmeasure.org" />
                                <code value="{Package}" />
                            </denominator>
                        </amount>
                        <ingredient>
                            <itemCodeableConcept>
                                <coding>
                                    <system value="http://snomed.info/sct" />
                                    <code value="387165009" />
                                    <display value="Enalapril maleate (substance)" />
                                </coding>
                                <text value="Enalapril maleate (substance)" />
                            </itemCodeableConcept>
                            <strength>
                                <numerator>
                                    <value value="20" />
                                    <unit value="milligram" />
                                    <system value="http://unitsofmeasure.org" />
                                    <code value="mg" />
                                </numerator>
                                <denominator>
                                    <value value="1" />
                                    <unit value="Tablet (unit of presentation)" />
                                    <system value="http://snomed.info/sct" />
                                    <code value="732936001" />
                                </denominator>
                            </strength>
                        </ingredient>
                    </Medication>
                </contained>
                <extension url="http://hcisolutions.ch/ig/analyzer/StructureDefinition/infoinputdocument">
                    <extension url="http://hcisolutions.ch/ig/analyzer/StructureDefinition/inputdocumentsource">
                        <valueString value="Cara" />
                    </extension>
                    <extension url="http://hcisolutions.ch/ig/analyzer/StructureDefinition/inputdocumenttype">
                        <valueCodeableConcept>
                            <coding>
                                <system value="http://loinc.org" />
                                <code value="56445-0" />
                            </coding>
                            <text value="Medication Card" />
                        </valueCodeableConcept>
                    </extension>
                    <extension url="http://hcisolutions.ch/ig/analyzer/StructureDefinition/inputdocumentdate">
                        <valueDateTime value="2020-03-10T11:00:00+01:00" />
                    </extension>
                    <extension url="http://hcisolutions.ch/ig/analyzer/StructureDefinition/parentdocumentid">
                        <valueIdentifier>
                            <system value="urn:ietf:rfc:3986" />
                            <value value="urn:uuid:26d3dff7-ab05-4737-a49c-5eccd3359a4b" />
                        </valueIdentifier>
                    </extension>
                </extension>
                <identifier>
                    <system value="urn:ietf:rfc:3986" />
                    <value value="urn:uuid:30723235-64b9-4727-8040-2525aa67dadb" />
                </identifier>
                <status value="active" />
                <category>
                    <coding>
                        <system value="http://www.whocc.no/atc" />
                        <code value="C" />
                        <display value="Kardiovaskuläres System" />
                    </coding>
                </category>
                <medicationReference>
                    <reference value="#cont1" />
                </medicationReference>
                <subject>
                    <reference value="Patient/3ef4e2e8-5441-4c9a-b844-cf138c7a0308" />
                </subject>
                <informationSource>
                    <reference value="PractitionerRole/040c78c6-bfc2-47f6-8faa-eae17962affa" />
                </informationSource>
                <reasonCode>
                    <text value="Bluthochdruck" />
                </reasonCode>
                <dosage>
                    <timing>
                        <repeat>
                            <boundsPeriod>
                                <start value="2020-03-10" />
                            </boundsPeriod>
                            <when value="MORN" />
                        </repeat>
                    </timing>
                    <route>
                        <coding>
                            <system value="urn:oid:0.4.0.127.0.16.1.1.2.1" />
                            <code value="20053000" />
                            <display value="Oral use" />
                        </coding>
                    </route>
                    <doseAndRate>
                        <doseQuantity>
                            <value value="1" />
                            <unit value="Tablet (unit of presentation)" />
                            <system value="http://snomed.info/sct" />
                            <code value="732936001" />
                        </doseQuantity>
                    </doseAndRate>
                </dosage>
            </MedicationStatement>
        </resource>
    </entry>
    <entry>
        <fullUrl value="https://int.documedis.hcisolutions.ch/CE/mda/2020-01/MedicationStatement/59c8742f-ac99-4c61-9287-6df3ac2420cc" />
        <resource>
            <MedicationStatement>
                <id value="59c8742f-ac99-4c61-9287-6df3ac2420cc" />
                <contained>
                    <Medication>
                        <id value="cont1" />
                        <code>
                            <coding>
                                <system value="urn:oid:2.51.1.1" />
                                <code value="7680460380299" />
                                <display value="Reniten Tabl 20 mg 98 Stk" />
                            </coding>
                            <text value="RENITEN Tabl 20 mg" />
                        </code>
                        <form>
                            <coding>
                                <system value="urn:oid:0.4.0.127.0.16.1.1.2.1" />
                                <code value="10219000" />
                                <display value="Tablet" />
                            </coding>
                        </form>
                        <amount>
                            <numerator>
                                <value value="98" />
                                <unit value="Piece" />
                                <system value="http://unitsofmeasure.org" />
                                <code value="{Piece}" />
                            </numerator>
                            <denominator>
                                <value value="1" />
                                <unit value="Package" />
                                <system value="http://unitsofmeasure.org" />
                                <code value="{Package}" />
                            </denominator>
                        </amount>
                        <ingredient>
                            <itemCodeableConcept>
                                <coding>
                                    <system value="http://snomed.info/sct" />
                                    <code value="387165009" />
                                    <display value="Enalapril maleate (substance)" />
                                </coding>
                                <text value="Enalapril maleate (substance)" />
                            </itemCodeableConcept>
                            <strength>
                                <numerator>
                                    <value value="20" />
                                    <unit value="milligram" />
                                    <system value="http://unitsofmeasure.org" />
                                    <code value="mg" />
                                </numerator>
                                <denominator>
                                    <value value="1" />
                                    <unit value="Tablet (unit of presentation)" />
                                    <system value="http://snomed.info/sct" />
                                    <code value="732936001" />
                                </denominator>
                            </strength>
                        </ingredient>
                    </Medication>
                </contained>
                <identifier>
                    <system value="urn:ietf:rfc:3986" />
                    <value value="urn:uuid:59c8742f-ac99-4c61-9287-6df3ac2420cc" />
                </identifier>
                <status value="unknown" />
                <category>
                    <coding>
                        <system value="http://www.whocc.no/atc" />
                        <code value="C" />
                        <display value="Kardiovaskuläres System" />
                    </coding>
                </category>
                <medicationReference>
                    <reference value="#cont1" />
                </medicationReference>
                <subject>
                    <reference value="Patient/3ef4e2e8-5441-4c9a-b844-cf138c7a0308" />
                </subject>
                <informationSource>
                    <reference value="PractitionerRole/040c78c6-bfc2-47f6-8faa-eae17962affa" />
                </informationSource>
                <derivedFrom>
                    <reference value="MedicationStatement/dc2b6491-0b14-47a6-8ff6-f1d5d048ccc1" />
                </derivedFrom>
                <derivedFrom>
                    <reference value="Observation/70876681-3943-40ac-8a8a-9d9488d6e675" />
                </derivedFrom>
                <derivedFrom>
                    <reference value="Observation/3aca4b2b-3b89-4cd5-b29d-1727852ccfb3" />
                </derivedFrom>
                <derivedFrom>
                    <reference value="MedicationStatement/d884e50f-ad89-4d7f-9ce6-6afbe22e8c6a" />
                </derivedFrom>
                <dosage>
                    <timing>
                        <repeat>
                            <boundsPeriod>
                                <start value="2020-03-10" />
                            </boundsPeriod>
                            <when value="MORN" />
                        </repeat>
                    </timing>
                    <route>
                        <coding>
                            <system value="urn:oid:0.4.0.127.0.16.1.1.2.1" />
                            <code value="20053000" />
                            <display value="Oral use" />
                        </coding>
                    </route>
                    <doseAndRate>
                        <doseQuantity>
                            <value value="1" />
                            <unit value="Tablet (unit of presentation)" />
                            <system value="http://snomed.info/sct" />
                            <code value="732936001" />
                        </doseQuantity>
                    </doseAndRate>
                </dosage>
            </MedicationStatement>
        </resource>
    </entry>
    <entry>
        <fullUrl value="https://int.documedis.hcisolutions.ch/CE/mda/2020-01/Observation/70876681-3943-40ac-8a8a-9d9488d6e675" />
        <resource>
            <Observation>
                <id value="70876681-3943-40ac-8a8a-9d9488d6e675" />
                <identifier>
                    <system value="urn:ietf:rfc:3986" />
                    <value value="urn:uuid:70876681-3943-40ac-8a8a-9d9488d6e675" />
                </identifier>
                <status value="final" />
                <code>
                    <coding>
                        <system value="urn:oid:1.3.6.1.4.1.19376.1.9.2.1" />
                        <code value="OK" />
                    </coding>
                </code>
                <valueCodeableConcept>
                    <coding>
                        <system value="http://hcisolutions.ch/ig/analyzer/CodeSystem/history-changes" />
                        <code value="sameMedication" />
                    </coding>
                </valueCodeableConcept>
            </Observation>
        </resource>
    </entry>
    <entry>
        <fullUrl value="https://int.documedis.hcisolutions.ch/CE/mda/2020-01/Observation/3aca4b2b-3b89-4cd5-b29d-1727852ccfb3" />
        <resource>
            <Observation>
                <id value="3aca4b2b-3b89-4cd5-b29d-1727852ccfb3" />
                <identifier>
                    <system value="urn:ietf:rfc:3986" />
                    <value value="urn:uuid:3aca4b2b-3b89-4cd5-b29d-1727852ccfb3" />
                </identifier>
                <status value="final" />
                <code>
                    <coding>
                        <system value="urn:oid:1.3.6.1.4.1.19376.1.9.2.1" />
                        <code value="CHANGE" />
                    </coding>
                </code>
                <valueCodeableConcept>
                    <coding>
                        <system value="http://hcisolutions.ch/ig/analyzer/CodeSystem/history-changes" />
                        <code value="changePractitioner" />
                    </coding>
                </valueCodeableConcept>
            </Observation>
        </resource>
    </entry>
</Bundle>