<?xml version="1.0" encoding="UTF-8"?>

<Bundle xmlns="http://hl7.org/fhir">
    <id value="A4-ConsolidatedMedicationCard"/>
    <identifier>
        <system value="urn:ietf:rfc:3986"/>
        <value value="urn:uuid:26d3dff7-ab05-4737-a49c-5eccd33511a4"/>
    </identifier>
    <type value="document"/>
    <timestamp value="2020-03-10T11:30:00+01:00"/>
    <entry>
        <fullUrl value="http://test.fhir.ch/r4/Composition/A4-Analyzer"/>
        <resource>
            <Composition>
                <id value="A4-Analyzer"/>
                <identifier>
                    <system value="urn:ietf:rfc:3986"/>
                    <value value="urn:uuid:26d3dff7-ab05-4737-a49c-5eccd33511a4"/>
                </identifier>
                <status value="final"/>
                <type>
                    <coding>
                        <system value="http://snomed.info/sct"/>
                        <code value="721912009"/>
                    </coding>
                </type>
                <subject>
                    <reference value="Patient/MonikaWegmueller"/>
                </subject>
                <date value="2020-03-10T11:30:00+01:00"/>
                <author>
                    <reference value="Device/Analyzer"/>
                </author>
                <title value="Medikationsplan"/>
                <section>
                    <entry>
                        <reference value="MedicationStatement/A4-MedStatReniten-Analyzer"/>
                    </entry>
                </section>
            </Composition>
        </resource>
    </entry>
    <entry>
        <fullUrl value="http://test.fhir.ch/r4/Device/Analyzer"/>
        <resource>
            <Device>
                <id value="Analyzer"/>
                <deviceName>
                    <name value="Documedis Medical Data Analyzer CE"/>
                    <type value="user-friendly-name"/>
                </deviceName>
                <version>
                    <value value="0.0.0.1"/>
                </version>
            </Device>
        </resource>
    </entry>
    <entry>
        <fullUrl value="http://test.fhir.ch/r4/Patient/MonikaWegmueller"/>
        <resource>
            <Patient>
                <id value="MonikaWegmueller"/>
                <identifier>
                    <type>
                        <coding>
                            <system value="http://terminology.hl7.org/CodeSystem/v2-0203"/>
                            <code value="MR"/>
                        </coding>
                    </type>
                    <system value="urn:oid:2.999.1"/>
                    <value value="11111111"/>
                </identifier>
                <name>
                    <family value="Wegmüller"/>
                    <given value="Monika"/>
                </name>
                <gender value="female"/>
                <birthDate value="1943-05-15"/>
                <address>
                    <line value="Wiesenstr. 12"/>
                    <city value="Zürich"/>
                    <postalCode value="8003"/>
                    <country value="CH"/>
                </address>
                <communication>
                    <language>
                        <coding>
                            <system value="urn:ietf:bcp:47"/>
                            <code value="de-CH"/>
                            <display value="German (Region=Switzerland)"/>
                        </coding>
                    </language>
                    <preferred value="true"/>
                </communication>
            </Patient>
        </resource>
    </entry>
    <entry>
        <fullUrl value="http://test.fhir.ch/r4/PractitionerRole/DupontAtHausarzt"/>
        <resource>
            <PractitionerRole>
                <id value="DupontAtHausarzt"/>
                <practitioner>
                    <reference value="Practitioner/Dupont"/>
                </practitioner>
                <organization>
                    <reference value="Organization/Hausarzt"/>
                </organization>
            </PractitionerRole>
        </resource>
    </entry>
    <entry>
        <fullUrl value="http://test.fhir.ch/r4/Practitioner/Dupont"/>
        <resource>
            <Practitioner>
                <id value="Dupont"/>
                <identifier>
                    <system value="urn:oid:2.51.1.3"/>
                    <value value="7601023234613"/>
                </identifier>
                <name>
                    <family value="Dupont"/>
                    <given value="Hausarzt"/>
                </name>
            </Practitioner>
        </resource>
    </entry>
    <entry>
        <fullUrl value="http://test.fhir.ch/r4/Organization/Hausarzt"/>
        <resource>
            <Organization>
                <id value="Hausarzt"/>
                <identifier>
                    <system value="urn:oid:2.51.1.3"/>
                    <value value="7601023234613"/>
                </identifier>
                <name value="Hausarzt"/>
                <address>
                    <line value="Dupontstrasse"/>
                    <city value="Bern"/>
                    <postalCode value="3000"/>
                    <country value="CH"/>
                </address>
            </Organization>
        </resource>
    </entry>
    <entry>
        <fullUrl value="http://test.fhir.ch/r4/PractitionerRole/MonneyAtSpezialist"/>
        <resource>
            <PractitionerRole>
                <id value="MonneyAtSpezialist"/>
                <practitioner>
                    <reference value="Practitioner/Monney"/>
                </practitioner>
                <organization>
                    <reference value="Organization/Spezialist"/>
                </organization>
            </PractitionerRole>
        </resource>
    </entry>
    <entry>
        <fullUrl value="http://test.fhir.ch/r4/Practitioner/Monney"/>
        <resource>
            <Practitioner>
                <id value="Monney"/>
                <identifier>
                    <system value="urn:oid:2.51.1.3"/>
                    <value value="7601000239891"/>
                </identifier>
                <name>
                    <family value="Monney"/>
                    <given value="Spezialist"/>
                </name>
            </Practitioner>
        </resource>
    </entry>
    <entry>
        <fullUrl value="http://test.fhir.ch/r4/Organization/Spezialist"/>
        <resource>
            <Organization>
                <id value="Spezialist"/>
                <identifier>
                    <system value="urn:oid:2.51.1.3"/>
                    <value value="7601000239891"/>
                </identifier>
                <name value="Spezialist"/>
                <address>
                    <line value="Monneystrasse"/>
                    <city value="Bern"/>
                    <postalCode value="3000"/>
                    <country value="CH"/>
                </address>
            </Organization>
        </resource>
    </entry>

    <!-- Reference from MedicationStatement.derivedFrom (History) -->
    <entry>
        <fullUrl value="http://test.fhir.ch/r4/MedicationStatement/A4-MedStatReniten-Dupont"/>
        <resource>
            <MedicationStatement xmlns="http://hl7.org/fhir">
                <id value="A4-MedStatReniten-Dupont"/>
                <contained>
                    <Medication xmlns="http://hl7.org/fhir">
                        <id value="cont1"/>
                        <code>
                            <coding>
                                <system value="urn:oid:2.51.1.1"/>
                                <code value="7680460380299"/>
                                <display value="RENITEN Tabl 20 mg"/>
                            </coding>
                            <text value="RENITEN Tabl 20 mg"/>
                        </code>
                        <form>
                            <coding>
                                <system value="urn:oid:0.4.0.127.0.16.1.1.2.1"/>
                                <code value="10219000"/>
                                <display value="Tablet"/>
                            </coding>
                        </form>
                        <amount>
                            <numerator>
                                <value value="98"/>
                                <unit value="Piece"/>
                                <system value="http://unitsofmeasure.org"/>
                                <code value="{Piece}"/>
                            </numerator>
                            <denominator>
                                <value value="1"/>
                                <unit value="Package"/>
                                <system value="http://unitsofmeasure.org"/>
                                <code value="{Package}"/>
                            </denominator>
                        </amount>
                        <ingredient>
                            <itemCodeableConcept>
                                <coding>
                                    <system value="http://snomed.info/sct"/>
                                    <code value="387165009"/>
                                    <display value="Enalapril maleate (substance)"/>
                                </coding>
                                <text value="Enalapril maleate (substance)"/>
                            </itemCodeableConcept>
                            <strength>
                                <numerator>
                                    <value value="20"/>
                                    <unit value="milligram"/>
                                    <system value="http://unitsofmeasure.org"/>
                                    <code value="mg"/>
                                </numerator>
                                <denominator>
                                    <value value="1"/>
                                    <unit value="Tablet (unit of presentation)"/>
                                    <system value="http://snomed.info/sct"/>
                                    <code value="732936001"/>
                                </denominator>
                            </strength>
                        </ingredient>
                    </Medication>
                </contained>
                <extension url="http://hcisolutions.ch/ig/analyzer/StructureDefinition/infoinputdocument">
                    <extension url="http://hcisolutions.ch/ig/analyzer/StructureDefinition/inputdocumentsource">
                        <valueString value="Cara"/>
                    </extension>
                    <extension url="http://hcisolutions.ch/ig/analyzer/StructureDefinition/inputdocumenttype">
                        <valueCodeableConcept>
                            <coding>
                                <system value="http://loinc.org"/>
                                <code value="56445-0"/>
                            </coding>
                            <text value="Medication Card"/>
                        </valueCodeableConcept>
                    </extension>
                    <extension url="http://hcisolutions.ch/ig/analyzer/StructureDefinition/inputdocumentdate">
                        <valueDateTime value="2020-03-01T11:00:00+01:00"/>
                    </extension>
                    <extension url="http://hcisolutions.ch/ig/analyzer/StructureDefinition/parentdocumentid">
                        <valueIdentifier>
                            <system value="urn:ietf:rfc:3986"/>
                            <value value="urn:uuid:26d3dff7-ab05-4737-a49c-5eccd3359a4a"/>
                        </valueIdentifier>
                    </extension>
                </extension>
                <identifier>
                    <system value="urn:ietf:rfc:3986"/>
                    <value value="urn:uuid:8467d8ef-0c21-4d1b-abc9-8721b4095ab8"/>
                </identifier>
                <status value="active"/>
                <category>
                    <coding>
                        <system value="http://www.whocc.no/atc"/>
                        <code value="C"/>
                        <display value="Kardiovaskuläres System"/>
                    </coding>
                </category>
                <medicationReference>
                    <reference value="#cont1"/>
                </medicationReference>
                <subject>
                    <reference value="Patient/MonikaWegmueller"/>
                </subject>
                <informationSource>
                    <reference value="PractitionerRole/DupontAtHausarzt"/>
                </informationSource>
                <reasonCode>
                    <text value="Bluthochdruck"/>
                </reasonCode>
                <dosage>
                    <timing>
                        <repeat>
                            <boundsPeriod>
                                <start value="2020-03-01"/>
                            </boundsPeriod>
                            <when value="MORN"/>
                        </repeat>
                    </timing>
                    <route>
                        <coding>
                            <system value="urn:oid:0.4.0.127.0.16.1.1.2.1"/>
                            <code value="20053000"/>
                            <display value="Oral use"/>
                        </coding>
                    </route>
                    <doseAndRate>
                        <doseQuantity>
                            <value value="1"/>
                            <unit value="Tablet (unit of presentation)"/>
                            <system value="http://snomed.info/sct"/>
                            <code value="732936001"/>
                        </doseQuantity>
                    </doseAndRate>
                </dosage>
            </MedicationStatement>
        </resource>
    </entry>

    <!-- Reference from MedicationStatement.derivedFrom (History) -->
    <entry>
        <fullUrl value="http://test.fhir.ch/r4/MedicationStatement/A4-MedStatReniten-Monney"/>
        <resource>
            <MedicationStatement xmlns="http://hl7.org/fhir">
                <id value="A4-MedStatReniten-Monney"/>
                <contained>
                    <Medication xmlns="http://hl7.org/fhir">
                        <id value="cont1"/>
                        <code>
                            <coding>
                                <system value="urn:oid:2.51.1.1"/>
                                <code value="7680460380299"/>
                                <display value="RENITEN Tabl 20 mg"/>
                            </coding>
                            <text value="RENITEN Tabl 20 mg"/>
                        </code>
                        <form>
                            <coding>
                                <system value="urn:oid:0.4.0.127.0.16.1.1.2.1"/>
                                <code value="10219000"/>
                                <display value="Tablet"/>
                            </coding>
                        </form>
                        <amount>
                            <numerator>
                                <value value="98"/>
                                <unit value="Piece"/>
                                <system value="http://unitsofmeasure.org"/>
                                <code value="{Piece}"/>
                            </numerator>
                            <denominator>
                                <value value="1"/>
                                <unit value="Package"/>
                                <system value="http://unitsofmeasure.org"/>
                                <code value="{Package}"/>
                            </denominator>
                        </amount>
                        <ingredient>
                            <itemCodeableConcept>
                                <coding>
                                    <system value="http://snomed.info/sct"/>
                                    <code value="387165009"/>
                                    <display value="Enalapril maleate (substance)"/>
                                </coding>
                                <text value="Enalapril maleate (substance)"/>
                            </itemCodeableConcept>
                            <strength>
                                <numerator>
                                    <value value="20"/>
                                    <unit value="milligram"/>
                                    <system value="http://unitsofmeasure.org"/>
                                    <code value="mg"/>
                                </numerator>
                                <denominator>
                                    <value value="1"/>
                                    <unit value="Tablet (unit of presentation)"/>
                                    <system value="http://snomed.info/sct"/>
                                    <code value="732936001"/>
                                </denominator>
                            </strength>
                        </ingredient>
                    </Medication>
                </contained>
                <extension url="http://hcisolutions.ch/ig/analyzer/StructureDefinition/infoinputdocument">
                    <extension url="http://hcisolutions.ch/ig/analyzer/StructureDefinition/inputdocumentsource">
                        <valueString value="Cara"/>
                    </extension>
                    <extension url="http://hcisolutions.ch/ig/analyzer/StructureDefinition/inputdocumenttype">
                        <valueCodeableConcept>
                            <coding>
                                <system value="http://loinc.org"/>
                                <code value="56445-0"/>
                            </coding>
                            <text value="Medication Card"/>
                        </valueCodeableConcept>
                    </extension>
                    <extension url="http://hcisolutions.ch/ig/analyzer/StructureDefinition/inputdocumentdate">
                        <valueDateTime value="2020-03-10T11:00:00+01:00"/>
                    </extension>
                    <extension url="http://hcisolutions.ch/ig/analyzer/StructureDefinition/parentdocumentid">
                        <valueIdentifier>
                            <system value="urn:ietf:rfc:3986"/>
                            <value value="urn:uuid:26d3dff7-ab05-4737-a49c-5eccd3359a4b"/>
                        </valueIdentifier>
                    </extension>
                </extension>
                <identifier>
                    <system value="urn:ietf:rfc:3986"/>
                    <value value="urn:uuid:30723235-64b9-4727-8040-2525aa67dadb"/>
                </identifier>
                <status value="active"/>
                <category>
                    <coding>
                        <system value="http://www.whocc.no/atc"/>
                        <code value="C"/>
                        <display value="Kardiovaskuläres System"/>
                    </coding>
                </category>
                <medicationReference>
                    <reference value="#cont1"/>
                </medicationReference>
                <subject>
                    <reference value="Patient/MonikaWegmueller"/>
                </subject>
                <informationSource>
                    <reference value="PractitionerRole/MonneyAtSpezialist"/>
                </informationSource>
                <reasonCode>
                    <text value="Bluthochdruck"/>
                </reasonCode>
                <dosage>
                    <timing>
                        <repeat>
                            <boundsPeriod>
                                <start value="2020-03-10"/>
                            </boundsPeriod>
                            <when value="MORN"/>
                        </repeat>
                    </timing>
                    <route>
                        <coding>
                            <system value="urn:oid:0.4.0.127.0.16.1.1.2.1"/>
                            <code value="20053000"/>
                            <display value="Oral use"/>
                        </coding>
                    </route>
                    <doseAndRate>
                        <doseQuantity>
                            <value value="1"/>
                            <unit value="Tablet (unit of presentation)"/>
                            <system value="http://snomed.info/sct"/>
                            <code value="732936001"/>
                        </doseQuantity>
                    </doseAndRate>
                </dosage>
            </MedicationStatement>
        </resource>
    </entry>

    <!-- Section entry: MedicationStatement -->
    <entry>
        <fullUrl value="http://test.fhir.ch/r4/MedicationStatement/A4-MedStatReniten-Analyzer"/>
        <resource>
            <MedicationStatement>
                <id value="A4-MedStatReniten-Analyzer"/>
                <contained>
                    <Medication>
                        <id value="cont1"/>
                        <code>
                            <coding>
                                <system value="urn:oid:2.51.1.1"/>
                                <code value="7680460380299"/>
                                <display value="RENITEN Tabl 20 mg"/>
                            </coding>
                            <text value="RENITEN Tabl 20 mg"/>
                        </code>
                        <form>
                            <coding>
                                <system value="urn:oid:0.4.0.127.0.16.1.1.2.1"/>
                                <code value="10219000"/>
                                <display value="Tablet"/>
                            </coding>
                        </form>
                        <amount>
                            <numerator>
                                <value value="98"/>
                                <unit value="Piece"/>
                                <system value="http://unitsofmeasure.org"/>
                                <code value="{Piece}"/>
                            </numerator>
                            <denominator>
                                <value value="1"/>
                                <unit value="Package"/>
                                <system value="http://unitsofmeasure.org"/>
                                <code value="{Package}"/>
                            </denominator>
                        </amount>
                        <ingredient>
                            <itemCodeableConcept>
                                <coding>
                                    <system value="http://snomed.info/sct"/>
                                    <code value="387165009"/>
                                    <display value="Enalapril maleate (substance)"/>
                                </coding>
                                <text value="Enalapril maleate (substance)"/>
                            </itemCodeableConcept>
                            <strength>
                                <numerator>
                                    <value value="20"/>
                                    <unit value="milligram"/>
                                    <system value="http://unitsofmeasure.org"/>
                                    <code value="mg"/>
                                </numerator>
                                <denominator>
                                    <value value="1"/>
                                    <unit value="Tablet (unit of presentation)"/>
                                    <system value="http://snomed.info/sct"/>
                                    <code value="732936001"/>
                                </denominator>
                            </strength>
                        </ingredient>
                    </Medication>
                </contained>
                <identifier>
                    <system value="urn:ietf:rfc:3986"/>
                    <value value="urn:uuid:07688814-21a1-4a47-b9fd-32178066ce26"/>
                </identifier>
                <status value="unknown"/>
                <category>
                    <coding>
                        <system value="http://www.whocc.no/atc"/>
                        <code value="C"/>
                        <display value="Kardiovaskuläres System"/>
                    </coding>
                </category>
                <medicationReference>
                    <reference value="#cont1"/>
                </medicationReference>
                <subject>
                    <reference value="Patient/MonikaWegmueller"/>
                </subject>
                <informationSource>
                    <reference value="PractitionerRole/MonneyAtSpezialist"/>
                </informationSource>
                <!-- History -->
                <derivedFrom>
                    <reference value="MedicationStatement/A4-MedStatReniten-Dupont"/>
                </derivedFrom>
                <derivedFrom>
                    <reference value="Observation/A4-History-SameMedication"/>
                </derivedFrom>
                <derivedFrom>
                    <reference value="Observation/A4-History-ChangePractitioner"/>
                </derivedFrom>
                <derivedFrom>
                    <reference value="MedicationStatement/A4-MedStatReniten-Monney"/>
                </derivedFrom>
                <dosage>
                    <timing>
                        <repeat>
                            <boundsPeriod>
                                <start value="2020-03-10"/>
                            </boundsPeriod>
                            <when value="MORN"/>
                        </repeat>
                    </timing>
                    <route>
                        <coding>
                            <system value="urn:oid:0.4.0.127.0.16.1.1.2.1"/>
                            <code value="20053000"/>
                            <display value="Oral use"/>
                        </coding>
                    </route>
                    <doseAndRate>
                        <doseQuantity>
                            <value value="1"/>
                            <unit value="Tablet (unit of presentation)"/>
                            <system value="http://snomed.info/sct"/>
                            <code value="732936001"/>
                        </doseQuantity>
                    </doseAndRate>
                </dosage>
            </MedicationStatement>
        </resource>
    </entry>

    <!-- Reference from MedicationStatement.derivedFrom (History) -->
    <entry>
        <fullUrl value="http://test.fhir.ch/r4/Observation/A4-History-ChangePractitioner"/>
        <resource>
            <Observation>
                <id value="A4-History-ChangePractitioner"/>
                <identifier>
                    <system value="urn:ietf:rfc:3986"/>
                    <value value="urn:uuid:0c988518-193a-4339-a427-3252277629dc"/>
                </identifier>
                <status value="final"/>
                <code>
                    <coding>
                        <system value="urn:oid:1.3.6.1.4.1.19376.1.9.2.1"/>
                        <code value="CHANGE"/>
                    </coding>
                </code>
                <valueCodeableConcept>
                    <coding>
                        <system value="http://hcisolutions.ch/ig/analyzer/CodeSystem/history-changes"/>
                        <code value="changePractitioner"/>
                    </coding>
                </valueCodeableConcept>
            </Observation>
        </resource>
    </entry>

    <!-- Reference from MedicationStatement.derivedFrom (History) -->
    <entry>
        <fullUrl value="http://test.fhir.ch/r4/Observation/A4-History-SameMedication"/>
        <resource>
            <Observation>
                <id value="A4-History-SameMedication"/>
                <identifier>
                    <system value="urn:ietf:rfc:3986"/>
                    <value value="urn:uuid:8ab34cf5-778e-4518-92b1-4e7fc5c45312"/>
                </identifier>
                <status value="final"/>
                <code>
                    <coding>
                        <system value="urn:oid:1.3.6.1.4.1.19376.1.9.2.1"/>
                        <code value="OK"/>
                    </coding>
                </code>
                <valueCodeableConcept>
                    <coding>
                        <system value="http://hcisolutions.ch/ig/analyzer/CodeSystem/history-changes"/>
                        <code value="sameMedication"/>
                    </coding>
                </valueCodeableConcept>
            </Observation>
        </resource>
    </entry>
</Bundle>
