<Bundle xmlns="http://hl7.org/fhir">
    <id value="A5-ConsolidatedMedicationCard" />
    <identifier>
        <system value="urn:ietf:rfc:3986" />
        <value value="urn:uuid:b01f75ee-aa36-46d3-8709-66dc170aa0b1" />
    </identifier>
    <type value="document" />
    <timestamp value="2023-03-17T09:49:08.2996207+00:00" />
    <entry>
        <fullUrl value="https://int.documedis.hcisolutions.ch/CE/mda/2020-01/Composition/b01f75ee-aa36-46d3-8709-66dc170aa0b1" />
        <resource>
            <Composition>
                <id value="b01f75ee-aa36-46d3-8709-66dc170aa0b1" />
                <identifier>
                    <system value="urn:ietf:rfc:3986" />
                    <value value="urn:uuid:b01f75ee-aa36-46d3-8709-66dc170aa0b1" />
                </identifier>
                <status value="final" />
                <type>
                    <coding>
                        <system value="http://snomed.info/sct" />
                        <code value="721912009" />
                    </coding>
                </type>
                <subject>
                    <reference value="Patient/f1c4132f-446a-4572-99aa-6f38cf9609a1" />
                </subject>
                <date value="2023-03-17T09:49:08.299+00:00" />
                <author>
                    <reference value="Device/Analyzer" />
                </author>
                <title value="Medikationsplan" />
                <section>
                    <entry>
                        <reference value="MedicationStatement/2cd342c8-2b78-4eeb-9b36-96cb62e80c26" />
                    </entry>
                </section>
            </Composition>
        </resource>
    </entry>
    <entry>
        <fullUrl value="https://int.documedis.hcisolutions.ch/CE/mda/2020-01/Device/Analyzer" />
        <resource>
            <Device>
                <id value="Analyzer" />
                <deviceName>
                    <name value="Documedis Medical Data Analyzer CE" />
                    <type value="user-friendly-name" />
                </deviceName>
                <version>
                    <value value="0.0.0.1" />
                </version>
            </Device>
        </resource>
    </entry>
    <entry>
        <fullUrl value="https://int.documedis.hcisolutions.ch/CE/mda/2020-01/Patient/f1c4132f-446a-4572-99aa-6f38cf9609a1" />
        <resource>
            <Patient>
                <id value="f1c4132f-446a-4572-99aa-6f38cf9609a1" />
                <identifier>
                    <type>
                        <coding>
                            <system value="http://terminology.hl7.org/CodeSystem/v2-0203" />
                            <code value="MR" />
                        </coding>
                    </type>
                    <system value="urn:oid:2.999.1" />
                    <value value="11111111" />
                </identifier>
                <name>
                    <family value="Wegmüller" />
                    <given value="Monika" />
                </name>
                <gender value="female" />
                <birthDate value="1943-05-15" />
                <address>
                    <line value="Wiesenstr. 12" />
                    <city value="Zürich" />
                    <postalCode value="8003" />
                    <country value="CH" />
                </address>
                <communication>
                    <language>
                        <coding>
                            <system value="urn:ietf:bcp:47" />
                            <code value="de-CH" />
                            <display value="German (Region=Switzerland)" />
                        </coding>
                    </language>
                    <preferred value="true" />
                </communication>
            </Patient>
        </resource>
    </entry>
    <entry>
        <fullUrl value="https://int.documedis.hcisolutions.ch/CE/mda/2020-01/PractitionerRole/cbdc8987-4ad7-494b-aa5a-a5cce387d11d" />
        <resource>
            <PractitionerRole>
                <id value="cbdc8987-4ad7-494b-aa5a-a5cce387d11d" />
                <practitioner>
                    <reference value="Practitioner/4d879cef-c737-4942-82d2-3332c7c069f1" />
                </practitioner>
                <organization>
                    <reference value="Organization/874c23f8-5d1e-472b-87d3-42c8e1993c13" />
                </organization>
            </PractitionerRole>
        </resource>
    </entry>
    <entry>
        <fullUrl value="https://int.documedis.hcisolutions.ch/CE/mda/2020-01/Practitioner/4d879cef-c737-4942-82d2-3332c7c069f1" />
        <resource>
            <Practitioner>
                <id value="4d879cef-c737-4942-82d2-3332c7c069f1" />
                <identifier>
                    <system value="urn:oid:2.51.1.3" />
                    <value value="7601000239891" />
                </identifier>
                <name>
                    <family value="Monney" />
                    <given value="Spezialist" />
                </name>
            </Practitioner>
        </resource>
    </entry>
    <entry>
        <fullUrl value="https://int.documedis.hcisolutions.ch/CE/mda/2020-01/Organization/874c23f8-5d1e-472b-87d3-42c8e1993c13" />
        <resource>
            <Organization>
                <id value="874c23f8-5d1e-472b-87d3-42c8e1993c13" />
                <identifier>
                    <system value="urn:oid:2.51.1.3" />
                    <value value="7601000239891" />
                </identifier>
                <name value="Spezialist" />
                <address>
                    <line value="Monneystrasse" />
                    <city value="Bern" />
                    <postalCode value="3000" />
                    <country value="CH" />
                </address>
            </Organization>
        </resource>
    </entry>
    <entry>
        <fullUrl value="https://int.documedis.hcisolutions.ch/CE/mda/2020-01/MedicationStatement/e0fdaac4-8bba-4cee-b26f-e3d005b06e1a" />
        <resource>
            <MedicationStatement>
                <id value="e0fdaac4-8bba-4cee-b26f-e3d005b06e1a" />
                <contained>
                    <Medication>
                        <id value="cont1" />
                        <code>
                            <coding>
                                <system value="urn:oid:2.51.1.1" />
                                <code value="7680460380299" />
                                <display value="Reniten Tabl 20 mg 98 Stk" />
                            </coding>
                            <text value="RENITEN Tabl 20 mg" />
                        </code>
                        <form>
                            <coding>
                                <system value="urn:oid:0.4.0.127.0.16.1.1.2.1" />
                                <code value="10219000" />
                                <display value="Tablet" />
                            </coding>
                        </form>
                        <amount>
                            <numerator>
                                <value value="98" />
                                <unit value="Piece" />
                                <system value="http://unitsofmeasure.org" />
                                <code value="{Piece}" />
                            </numerator>
                            <denominator>
                                <value value="1" />
                                <unit value="Package" />
                                <system value="http://unitsofmeasure.org" />
                                <code value="{Package}" />
                            </denominator>
                        </amount>
                        <ingredient>
                            <itemCodeableConcept>
                                <coding>
                                    <system value="http://snomed.info/sct" />
                                    <code value="387165009" />
                                    <display value="Enalapril maleate (substance)" />
                                </coding>
                                <text value="Enalapril maleate (substance)" />
                            </itemCodeableConcept>
                            <strength>
                                <numerator>
                                    <value value="20" />
                                    <unit value="milligram" />
                                    <system value="http://unitsofmeasure.org" />
                                    <code value="mg" />
                                </numerator>
                                <denominator>
                                    <value value="1" />
                                    <unit value="Tablet (unit of presentation)" />
                                    <system value="http://snomed.info/sct" />
                                    <code value="732936001" />
                                </denominator>
                            </strength>
                        </ingredient>
                    </Medication>
                </contained>
                <extension url="http://hcisolutions.ch/ig/analyzer/StructureDefinition/infoinputdocument">
                    <extension url="http://hcisolutions.ch/ig/analyzer/StructureDefinition/inputdocumentsource">
                        <valueString value="Cara" />
                    </extension>
                    <extension url="http://hcisolutions.ch/ig/analyzer/StructureDefinition/inputdocumenttype">
                        <valueCodeableConcept>
                            <coding>
                                <system value="http://loinc.org" />
                                <code value="56445-0" />
                            </coding>
                            <text value="Medication Card" />
                        </valueCodeableConcept>
                    </extension>
                    <extension url="http://hcisolutions.ch/ig/analyzer/StructureDefinition/inputdocumentdate">
                        <valueDateTime value="2020-03-10T11:00:00+01:00" />
                    </extension>
                    <extension url="http://hcisolutions.ch/ig/analyzer/StructureDefinition/parentdocumentid">
                        <valueIdentifier>
                            <system value="urn:ietf:rfc:3986" />
                            <value value="urn:uuid:26d3dff7-ab05-4737-a49c-5eccd3359a5a" />
                        </valueIdentifier>
                    </extension>
                </extension>
                <identifier>
                    <system value="urn:ietf:rfc:3986" />
                    <value value="urn:uuid:1b310b02-6033-4ed1-b356-48ffd9024c4e" />
                </identifier>
                <status value="active" />
                <category>
                    <coding>
                        <system value="http://www.whocc.no/atc" />
                        <code value="C" />
                        <display value="Kardiovaskuläres System" />
                    </coding>
                </category>
                <medicationReference>
                    <reference value="#cont1" />
                </medicationReference>
                <subject>
                    <reference value="Patient/f1c4132f-446a-4572-99aa-6f38cf9609a1" />
                </subject>
                <informationSource>
                    <reference value="PractitionerRole/cbdc8987-4ad7-494b-aa5a-a5cce387d11d" />
                </informationSource>
                <reasonCode>
                    <text value="Bluthochdruck" />
                </reasonCode>
                <dosage>
                    <timing>
                        <repeat>
                            <boundsPeriod>
                                <start value="2020-03-10" />
                            </boundsPeriod>
                            <when value="MORN" />
                        </repeat>
                    </timing>
                    <route>
                        <coding>
                            <system value="urn:oid:0.4.0.127.0.16.1.1.2.1" />
                            <code value="20053000" />
                            <display value="Oral use" />
                        </coding>
                    </route>
                    <doseAndRate>
                        <doseQuantity>
                            <value value="1" />
                            <unit value="Tablet (unit of presentation)" />
                            <system value="http://snomed.info/sct" />
                            <code value="732936001" />
                        </doseQuantity>
                    </doseAndRate>
                </dosage>
            </MedicationStatement>
        </resource>
    </entry>
    <entry>
        <fullUrl value="https://int.documedis.hcisolutions.ch/CE/mda/2020-01/MedicationStatement/7f4610ea-373d-4737-abce-1b0986083bf7" />
        <resource>
            <MedicationStatement>
                <id value="7f4610ea-373d-4737-abce-1b0986083bf7" />
                <contained>
                    <Medication>
                        <id value="cont1" />
                        <code>
                            <coding>
                                <system value="urn:oid:2.51.1.1" />
                                <code value="7680577710149" />
                                <display value="Exforge Filmtabl 10mg/160mg 28 Stk" />
                            </coding>
                            <text value="EXFORGE Filmtabl 10mg/160mg" />
                        </code>
                        <form>
                            <coding>
                                <system value="urn:oid:0.4.0.127.0.16.1.1.2.1" />
                                <code value="10219000" />
                                <display value="Tablet" />
                            </coding>
                        </form>
                        <amount>
                            <numerator>
                                <value value="28" />
                                <unit value="Piece" />
                                <system value="http://unitsofmeasure.org" />
                                <code value="{Piece}" />
                            </numerator>
                            <denominator>
                                <value value="1" />
                                <unit value="Package" />
                                <system value="http://unitsofmeasure.org" />
                                <code value="{Package}" />
                            </denominator>
                        </amount>
                        <ingredient>
                            <itemCodeableConcept>
                                <coding>
                                    <system value="http://snomed.info/sct" />
                                    <code value="386864001" />
                                    <display value="Amlodipine (substance)" />
                                </coding>
                                <text value="Amlodipine (substance)" />
                            </itemCodeableConcept>
                            <strength>
                                <numerator>
                                    <value value="10" />
                                    <unit value="milligram" />
                                    <system value="http://unitsofmeasure.org" />
                                    <code value="mg" />
                                </numerator>
                                <denominator>
                                    <value value="1" />
                                    <unit value="Tablet (unit of presentation)" />
                                    <system value="http://snomed.info/sct" />
                                    <code value="732936001" />
                                </denominator>
                            </strength>
                        </ingredient>
                        <ingredient>
                            <itemCodeableConcept>
                                <coding>
                                    <system value="http://snomed.info/sct" />
                                    <code value="386876001" />
                                    <display value="Valsartan (substance)" />
                                </coding>
                                <text value="Valsartan (substance)" />
                            </itemCodeableConcept>
                            <strength>
                                <numerator>
                                    <value value="160" />
                                    <unit value="milligram" />
                                    <system value="http://unitsofmeasure.org" />
                                    <code value="mg" />
                                </numerator>
                                <denominator>
                                    <value value="1" />
                                    <unit value="Tablet (unit of presentation)" />
                                    <system value="http://snomed.info/sct" />
                                    <code value="732936001" />
                                </denominator>
                            </strength>
                        </ingredient>
                    </Medication>
                </contained>
                <extension url="http://hcisolutions.ch/ig/analyzer/StructureDefinition/infoinputdocument">
                    <extension url="http://hcisolutions.ch/ig/analyzer/StructureDefinition/inputdocumentsource">
                        <valueString value="Cara" />
                    </extension>
                    <extension url="http://hcisolutions.ch/ig/analyzer/StructureDefinition/inputdocumenttype">
                        <valueCodeableConcept>
                            <coding>
                                <system value="http://loinc.org" />
                                <code value="56445-0" />
                            </coding>
                            <text value="Medication Card" />
                        </valueCodeableConcept>
                    </extension>
                    <extension url="http://hcisolutions.ch/ig/analyzer/StructureDefinition/inputdocumentdate">
                        <valueDateTime value="2020-03-23T15:00:00+01:00" />
                    </extension>
                    <extension url="http://hcisolutions.ch/ig/analyzer/StructureDefinition/parentdocumentid">
                        <valueIdentifier>
                            <system value="urn:ietf:rfc:3986" />
                            <value value="urn:uuid:26d3dff7-ab05-4737-a49c-5eccd3359a5b" />
                        </valueIdentifier>
                    </extension>
                </extension>
                <identifier>
                    <system value="urn:ietf:rfc:3986" />
                    <value value="urn:uuid:3302c61b-4299-4e63-8938-71cec1b56f2f" />
                </identifier>
                <status value="active" />
                <category>
                    <coding>
                        <system value="http://www.whocc.no/atc" />
                        <code value="C" />
                        <display value="Kardiovaskuläres System" />
                    </coding>
                </category>
                <medicationReference>
                    <reference value="#cont1" />
                </medicationReference>
                <subject>
                    <reference value="Patient/f1c4132f-446a-4572-99aa-6f38cf9609a1" />
                </subject>
                <informationSource>
                    <reference value="PractitionerRole/cbdc8987-4ad7-494b-aa5a-a5cce387d11d" />
                </informationSource>
                <reasonCode>
                    <text value="Bluthochdruck" />
                </reasonCode>
                <dosage>
                    <timing>
                        <repeat>
                            <boundsPeriod>
                                <start value="2020-03-23" />
                            </boundsPeriod>
                            <when value="MORN" />
                        </repeat>
                    </timing>
                    <route>
                        <coding>
                            <system value="urn:oid:0.4.0.127.0.16.1.1.2.1" />
                            <code value="20053000" />
                            <display value="Oral use" />
                        </coding>
                    </route>
                    <doseAndRate>
                        <doseQuantity>
                            <value value="1" />
                            <unit value="Tablet (unit of presentation)" />
                            <system value="http://snomed.info/sct" />
                            <code value="732936001" />
                        </doseQuantity>
                    </doseAndRate>
                </dosage>
            </MedicationStatement>
        </resource>
    </entry>
    <entry>
        <fullUrl value="https://int.documedis.hcisolutions.ch/CE/mda/2020-01/MedicationStatement/2cd342c8-2b78-4eeb-9b36-96cb62e80c26" />
        <resource>
            <MedicationStatement>
                <id value="2cd342c8-2b78-4eeb-9b36-96cb62e80c26" />
                <contained>
                    <Medication>
                        <id value="cont1" />
                        <code>
                            <coding>
                                <system value="urn:oid:2.51.1.1" />
                                <code value="7680577710149" />
                                <display value="Exforge Filmtabl 10mg/160mg 28 Stk" />
                            </coding>
                            <text value="EXFORGE Filmtabl 10mg/160mg" />
                        </code>
                        <form>
                            <coding>
                                <system value="urn:oid:0.4.0.127.0.16.1.1.2.1" />
                                <code value="10219000" />
                                <display value="Tablet" />
                            </coding>
                        </form>
                        <amount>
                            <numerator>
                                <value value="28" />
                                <unit value="Piece" />
                                <system value="http://unitsofmeasure.org" />
                                <code value="{Piece}" />
                            </numerator>
                            <denominator>
                                <value value="1" />
                                <unit value="Package" />
                                <system value="http://unitsofmeasure.org" />
                                <code value="{Package}" />
                            </denominator>
                        </amount>
                        <ingredient>
                            <itemCodeableConcept>
                                <coding>
                                    <system value="http://snomed.info/sct" />
                                    <code value="386864001" />
                                    <display value="Amlodipine (substance)" />
                                </coding>
                                <text value="Amlodipine (substance)" />
                            </itemCodeableConcept>
                            <strength>
                                <numerator>
                                    <value value="10" />
                                    <unit value="milligram" />
                                    <system value="http://unitsofmeasure.org" />
                                    <code value="mg" />
                                </numerator>
                                <denominator>
                                    <value value="1" />
                                    <unit value="Tablet (unit of presentation)" />
                                    <system value="http://snomed.info/sct" />
                                    <code value="732936001" />
                                </denominator>
                            </strength>
                        </ingredient>
                        <ingredient>
                            <itemCodeableConcept>
                                <coding>
                                    <system value="http://snomed.info/sct" />
                                    <code value="386876001" />
                                    <display value="Valsartan (substance)" />
                                </coding>
                                <text value="Valsartan (substance)" />
                            </itemCodeableConcept>
                            <strength>
                                <numerator>
                                    <value value="160" />
                                    <unit value="milligram" />
                                    <system value="http://unitsofmeasure.org" />
                                    <code value="mg" />
                                </numerator>
                                <denominator>
                                    <value value="1" />
                                    <unit value="Tablet (unit of presentation)" />
                                    <system value="http://snomed.info/sct" />
                                    <code value="732936001" />
                                </denominator>
                            </strength>
                        </ingredient>
                    </Medication>
                </contained>
                <identifier>
                    <system value="urn:ietf:rfc:3986" />
                    <value value="urn:uuid:2cd342c8-2b78-4eeb-9b36-96cb62e80c26" />
                </identifier>
                <status value="unknown" />
                <category>
                    <coding>
                        <system value="http://www.whocc.no/atc" />
                        <code value="C" />
                        <display value="Kardiovaskuläres System" />
                    </coding>
                </category>
                <medicationReference>
                    <reference value="#cont1" />
                </medicationReference>
                <subject>
                    <reference value="Patient/f1c4132f-446a-4572-99aa-6f38cf9609a1" />
                </subject>
                <informationSource>
                    <reference value="PractitionerRole/cbdc8987-4ad7-494b-aa5a-a5cce387d11d" />
                </informationSource>
                <derivedFrom>
                    <reference value="MedicationStatement/e0fdaac4-8bba-4cee-b26f-e3d005b06e1a" />
                </derivedFrom>
                <derivedFrom>
                    <reference value="Observation/6862881f-5eb7-401d-bd60-4b5efbfdadf0" />
                </derivedFrom>
                <derivedFrom>
                    <reference value="MedicationStatement/7f4610ea-373d-4737-abce-1b0986083bf7" />
                </derivedFrom>
                <dosage>
                    <timing>
                        <repeat>
                            <boundsPeriod>
                                <start value="2020-03-23" />
                            </boundsPeriod>
                            <when value="MORN" />
                        </repeat>
                    </timing>
                    <route>
                        <coding>
                            <system value="urn:oid:0.4.0.127.0.16.1.1.2.1" />
                            <code value="20053000" />
                            <display value="Oral use" />
                        </coding>
                    </route>
                    <doseAndRate>
                        <doseQuantity>
                            <value value="1" />
                            <unit value="Tablet (unit of presentation)" />
                            <system value="http://snomed.info/sct" />
                            <code value="732936001" />
                        </doseQuantity>
                    </doseAndRate>
                </dosage>
            </MedicationStatement>
        </resource>
    </entry>
    <entry>
        <fullUrl value="https://int.documedis.hcisolutions.ch/CE/mda/2020-01/Observation/6862881f-5eb7-401d-bd60-4b5efbfdadf0" />
        <resource>
            <Observation>
                <id value="6862881f-5eb7-401d-bd60-4b5efbfdadf0" />
                <identifier>
                    <system value="urn:ietf:rfc:3986" />
                    <value value="urn:uuid:6862881f-5eb7-401d-bd60-4b5efbfdadf0" />
                </identifier>
                <status value="final" />
                <code>
                    <coding>
                        <system value="urn:oid:1.3.6.1.4.1.19376.1.9.2.1" />
                        <code value="CHANGE" />
                    </coding>
                </code>
                <valueCodeableConcept>
                    <coding>
                        <system value="http://hcisolutions.ch/ig/analyzer/CodeSystem/history-changes" />
                        <code value="changeTherapy" />
                    </coding>
                </valueCodeableConcept>
            </Observation>
        </resource>
    </entry>
</Bundle>