<?xml version="1.0" encoding="UTF-8"?>

<Bundle xmlns="http://hl7.org/fhir">
    <id value="NorvascCard-ConsolidatedMedicationCard"/>
    <identifier>
        <system value="urn:ietf:rfc:3986"/>
        <value value="urn:uuid:26d3dff7-ab05-4737-a49c-5eccd3357779"/>
    </identifier>
    <type value="document"/>
    <timestamp value="2020-04-03T12:00:00.000+00:00"/>
    <entry>
        <fullUrl value="http://test.fhir.ch/r4/Composition/2-7-Analyzer"/>
        <resource>
            <Composition>
                <id value="2-7-Analyzer"/>
                <identifier>
                    <system value="urn:ietf:rfc:3986"/>
                    <value value="urn:uuid:26d3dff7-ab05-4737-a49c-5eccd3357779"/>
                </identifier>
                <status value="final"/>
                <type>
                    <coding>
                        <system value="http://snomed.info/sct"/>
                        <code value="721912009"/>
                        <display value="Medication summary document (record artifact)"/>
                    </coding>
                </type>
                <subject>
                    <reference value="Patient/MonikaWegmueller"/>
                </subject>
                <date value="2020-04-03T12:00:00.000+00:00"/>
                <author>
                    <reference value="Device/Analyzer"/>
                </author>
                <title value="Medikationsplan"/>
                <section>
                    <entry>
                        <reference value="MedicationStatement/2-7-MedStatNorvasc-Analyzer"/>
                    </entry>
                </section>
            </Composition>
        </resource>
    </entry>
    <entry>
        <fullUrl value="http://test.fhir.ch/r4/Device/Analyzer"/>
        <resource>
            <Device>
                <id value="Analyzer"/>
                <deviceName>
                    <name value="Documedis Medical Data Analyzer CE"/>
                    <type value="user-friendly-name"/>
                </deviceName>
                <version>
                    <value value="1.0.0.0"/>
                </version>
            </Device>
        </resource>
    </entry>
    <entry>
        <fullUrl value="http://test.fhir.ch/r4/Patient/MonikaWegmueller"/>
        <resource>
            <Patient>
                <id value="MonikaWegmueller"/>
                <identifier>
                    <type>
                        <coding>
                            <system value="http://terminology.hl7.org/CodeSystem/v2-0203"/>
                            <code value="MR"/>
                        </coding>
                    </type>
                    <system value="urn:oid:2.999.1"/>
                    <value value="11111111"/>
                </identifier>
                <name>
                    <family value="Wegmüller"/>
                    <given value="Monika"/>
                </name>
                <gender value="female"/>
                <birthDate value="1943-05-15"/>
                <address>
                    <line value="Wiesenstr. 12"/>
                    <city value="Zürich"/>
                    <postalCode value="8003"/>
                    <country value="CH"/>
                </address>
            </Patient>
        </resource>
    </entry>
    <entry>
        <fullUrl value="http://test.fhir.ch/r4/PractitionerRole/FamilienHausarztAtHausarzt"/>
        <resource>
            <PractitionerRole>
                <id value="FamilienHausarztAtHausarzt"/>
                <practitioner>
                    <reference value="Practitioner/FamilienHausarzt"/>
                </practitioner>
                <organization>
                    <reference value="Organization/Hausarzt"/>
                </organization>
            </PractitionerRole>
        </resource>
    </entry>
    <entry>
        <fullUrl value="http://test.fhir.ch/r4/Practitioner/FamilienHausarzt"/>
        <resource>
            <Practitioner>
                <id value="FamilienHausarzt"/>
                <identifier>
                    <system value="urn:oid:2.51.1.3"/>
                    <value value="7601000234438"/>
                </identifier>
                <name>
                    <family value="Hausarzt"/>
                    <given value="Familien"/>
                </name>
            </Practitioner>
        </resource>
    </entry>
    <entry>
        <fullUrl value="http://test.fhir.ch/r4/Organization/Hausarzt"/>
        <resource>
            <Organization>
                <id value="Hausarzt"/>
                <identifier>
                    <system value="urn:oid:2.51.1.3"/>
                    <value value="7601000234438"/>
                </identifier>
                <name value="Hausarzt"/>
                <address>
                    <line value="Krankenstrasse 2"/>
                    <city value="Zürich"/>
                    <postalCode value="8005"/>
                    <country value="CH"/>
                </address>
            </Organization>
        </resource>
    </entry>

    <!-- Section entry: Reference from MedicationStatement.derivedFrom (History) -->
    <entry>
        <fullUrl value="http://test.fhir.ch/r4/MedicationStatement/2-5-MedStatNorvasc-Analyzer"/>
        <resource>
            <MedicationStatement>
                <id value="2-5-MedStatNorvasc-Analyzer"/>
                <contained>
                    <Medication>
                        <id value="med"/>
                        <code>
                            <coding>
                                <system value="urn:oid:2.51.1.1"/>
                                <code value="7680500440334"/>
                                <display value="NORVASC Tabl 10 mg"/>
                            </coding>
                            <text value="NORVASC Tabl 10 mg"/>
                        </code>
                        <form>
                            <coding>
                                <system value="urn:oid:0.4.0.127.0.16.1.1.2.1"/>
                                <code value="10219000"/>
                                <display value="Tablet"/>
                            </coding>
                        </form>
                        <amount>
                            <numerator>
                                <value value="30"/>
                                <unit value="Tablet (unit of presentation)"/>
                                <system value="http://snomed.info/sct"/>
                                <code value="732936001"/>
                            </numerator>
                            <denominator>
                                <value value="1"/>
                                <unit value="Package"/>
                                <system value="http://unitsofmeasure.org"/>
                                <code value="{Package}"/>
                            </denominator>
                        </amount>
                        <ingredient>
                            <itemCodeableConcept>
                                <coding>
                                    <system value="http://snomed.info/sct"/>
                                    <code value="386864001"/>
                                    <display value="Amlodipine (substance)"/>
                                </coding>
                                <text value="Amlodipine"/>
                            </itemCodeableConcept>
                            <strength>
                                <numerator>
                                    <value value="10"/>
                                    <unit value="milligram"/>
                                    <system value="http://unitsofmeasure.org"/>
                                    <code value="mg"/>
                                </numerator>
                                <denominator>
                                    <value value="1"/>
                                    <unit value="Tablet (unit of presentation)"/>
                                    <system value="http://snomed.info/sct"/>
                                    <code value="732936001"/>
                                </denominator>
                            </strength>
                        </ingredient>
                    </Medication>
                </contained>
                <extension url="http://hcisolutions.ch/ig/analyzer/StructureDefinition/infoinputdocument">
                    <extension url="http://hcisolutions.ch/ig/analyzer/StructureDefinition/inputdocumentsource">
                        <valueString value="EPD"/>
                    </extension>
                    <extension url="http://hcisolutions.ch/ig/analyzer/StructureDefinition/inputdocumenttype">
                        <valueCodeableConcept>
                            <coding>
                                <system value="http://loinc.org"/>
                                <code value="77603-9"/>
                                <display value="Medication treatment plan.extended"/>
                            </coding>
                        </valueCodeableConcept>
                    </extension>
                    <extension url="http://hcisolutions.ch/ig/analyzer/StructureDefinition/inputdocumentdate">
                        <valueDateTime value="2012-02-04T14:00:00+01:00"/>
                    </extension>
                    <extension url="http://hcisolutions.ch/ig/analyzer/StructureDefinition/inputdocumentid">
                        <valueIdentifier>
                            <system value="urn:ietf:rfc:3986"/>
                            <value value="urn:uuid:5712fffe-20c6-11e6-b67b-9e71128cae77"/>
                        </valueIdentifier>
                    </extension>
                </extension>
                <identifier>
                    <system value="urn:ietf:rfc:3986"/>
                    <value value="urn:uuid:5712fffe-20c6-11e6-b67b-9e71128cae77"/>
                </identifier>
                <status value="active"/>
                <category>
                    <coding>
                        <system value="http://www.whocc.no/atc"/>
                        <code value="C"/>
                        <display value="Kardiovaskuläres System"/>
                    </coding>
                </category>
                <medicationReference>
                    <reference value="#med"/>
                </medicationReference>
                <subject>
                    <reference value="Patient/MonikaWegmueller"/>
                </subject>
                <informationSource>
                    <reference value="PractitionerRole/FamilienHausarztAtHausarzt"/>
                </informationSource>
                <reasonCode>
                    <text value="Bluthochdruck"/>
                </reasonCode>
                <dosage>
                    <patientInstruction value="-"/>
                    <timing>
                        <repeat>
                            <boundsPeriod>
                                <start value="2012-02-04"/>
                            </boundsPeriod>
                            <when value="MORN"/>
                            <when value="EVE"/>
                        </repeat>
                    </timing>
                    <route>
                        <coding>
                            <system value="urn:oid:0.4.0.127.0.16.1.1.2.1"/>
                            <code value="20053000"/>
                            <display value="Oral use"/>
                        </coding>
                    </route>
                    <doseAndRate>
                        <doseQuantity>
                            <value value="1"/>
                            <unit value="Tablet (unit of presentation)"/>
                            <system value="http://snomed.info/sct"/>
                            <code value="732936001"/>
                        </doseQuantity>
                    </doseAndRate>
                </dosage>
            </MedicationStatement>
        </resource>
    </entry>

    <!-- Section entry: Reference from MedicationStatement.derivedFrom (History) -->
    <entry>
        <fullUrl value="http://test.fhir.ch/r4/MedicationRequest/2-6-MedReqNorvasc-Analyzer"/>
        <resource>
            <MedicationRequest>
                <id value="2-6-MedReqNorvasc-Analyzer"/>
                <contained>
                    <Medication>
                        <id value="med"/>
                        <code>
                            <coding>
                                <system value="urn:oid:2.51.1.1"/>
                                <code value="7680500440334"/>
                                <display value="NORVASC Tabl 10 mg"/>
                            </coding>
                            <text value="NORVASC Tabl 10 mg"/>
                        </code>
                        <form>
                            <coding>
                                <system value="urn:oid:0.4.0.127.0.16.1.1.2.1"/>
                                <code value="10219000"/>
                                <display value="Tablet"/>
                            </coding>
                        </form>
                        <amount>
                            <numerator>
                                <value value="30"/>
                                <unit value="Tablet (unit of presentation)"/>
                                <system value="http://snomed.info/sct"/>
                                <code value="732936001"/>
                            </numerator>
                            <denominator>
                                <value value="1"/>
                                <unit value="Package"/>
                                <system value="http://unitsofmeasure.org"/>
                                <code value="{Package}"/>
                            </denominator>
                        </amount>
                        <ingredient>
                            <itemCodeableConcept>
                                <coding>
                                    <system value="http://snomed.info/sct"/>
                                    <code value="386864001"/>
                                    <display value="Amlodipine (substance)"/>
                                </coding>
                                <text value="Amlodipine"/>
                            </itemCodeableConcept>
                            <strength>
                                <numerator>
                                    <value value="10"/>
                                    <unit value="milligram"/>
                                    <system value="http://unitsofmeasure.org"/>
                                    <code value="mg"/>
                                </numerator>
                                <denominator>
                                    <value value="1"/>
                                    <unit value="Tablet (unit of presentation)"/>
                                    <system value="http://snomed.info/sct"/>
                                    <code value="732936001"/>
                                </denominator>
                            </strength>
                        </ingredient>
                    </Medication>
                </contained>
                <extension url="http://hcisolutions.ch/ig/analyzer/StructureDefinition/infoinputdocument">
                    <extension url="http://hcisolutions.ch/ig/analyzer/StructureDefinition/inputdocumentsource">
                        <valueString value="EPD"/>
                    </extension>
                    <extension url="http://hcisolutions.ch/ig/analyzer/StructureDefinition/inputdocumenttype">
                        <valueCodeableConcept>
                            <coding>
                                <system value="http://loinc.org"/>
                                <code value="57833-6"/>
                                <display value="Prescription for medication"/>
                            </coding>
                        </valueCodeableConcept>
                    </extension>
                    <extension url="http://hcisolutions.ch/ig/analyzer/StructureDefinition/inputdocumentdate">
                        <valueDateTime value="2012-02-04T14:00:00+01:00"/>
                    </extension>
                    <extension url="http://hcisolutions.ch/ig/analyzer/StructureDefinition/inputdocumentid">
                        <valueIdentifier>
                            <system value="urn:ietf:rfc:3986"/>
                            <value value="urn:uuid:d41d72ba-2100-11e6-b67b-9e71128cae77"/>
                        </valueIdentifier>
                    </extension>
                </extension>
                <extension url="http://fhir.ch/ig/ch-emed/StructureDefinition/ch-emed-ext-treatmentplan">
                    <extension url="id">
                        <valueIdentifier>
                            <system value="urn:ietf:rfc:3986"/>
                            <value value="urn:uuid:5712fffe-20c6-11e6-b67b-9e71128cae77"/>
                        </valueIdentifier>
                    </extension>
                    <extension url="externalDocumentId">
                        <valueIdentifier>
                            <system value="urn:ietf:rfc:3986"/>
                            <value value="urn:uuid:5712fffe-20c6-11e6-b67b-9e71128cae77"/>
                        </valueIdentifier>
                    </extension>
                </extension>
                <identifier>
                    <system value="urn:ietf:rfc:3986"/>
                    <value value="urn:uuid:d41d72ba-2100-11e6-b67b-9e71128cae77"/>
                </identifier>
                <status value="active"/>
                <intent value="order"/>
                <category>
                    <coding>
                        <system value="http://www.whocc.no/atc"/>
                        <code value="C"/>
                        <display value="Kardiovaskuläres System"/>
                    </coding>
                </category>
                <medicationReference>
                    <reference value="#med"/>
                </medicationReference>
                <subject>
                    <reference value="Patient/MonikaWegmueller"/>
                </subject>
                <performer>
                    <reference value="PractitionerRole/FamilienHausarztAtHausarzt"/>
                </performer>
                <dosageInstruction>
                    <patientInstruction value="-"/>
                    <timing>
                        <repeat>
                            <boundsPeriod>
                                <start value="2012-02-04"/>
                            </boundsPeriod>
                            <when value="MORN"/>
                            <when value="EVE"/>
                        </repeat>
                    </timing>
                    <route>
                        <coding>
                            <system value="urn:oid:0.4.0.127.0.16.1.1.2.1"/>
                            <code value="20053000"/>
                            <display value="Oral use"/>
                        </coding>
                    </route>
                    <doseAndRate>
                        <doseQuantity>
                            <value value="1"/>
                            <unit value="Tablet (unit of presentation)" />
                            <system value="http://snomed.info/sct"/>
                            <code value="732936001"/>
                        </doseQuantity>
                    </doseAndRate>
                </dosageInstruction>
                <dispenseRequest>
                    <validityPeriod>
                        <start value="2012-02-04"/>
                        <end value="2012-05-03"/>
                    </validityPeriod>
                </dispenseRequest>
            </MedicationRequest>
        </resource>
    </entry>

    <!-- Section entry: Reference from MedicationStatement.derivedFrom (History) -->
    <entry>
        <fullUrl value="http://test.fhir.ch/r4/MedicationStatement/2-7-MedStatNorvascFromCard-Analyzer"/>
        <resource>
            <MedicationStatement>
                <id value="2-7-MedStatNorvascFromCard-Analyzer"/>
                <contained>
                    <Medication>
                        <id value="med"/>
                        <code>
                            <coding>
                                <system value="urn:oid:2.51.1.1"/>
                                <code value="7680500440334"/>
                                <display value="NORVASC Tabl 10 mg"/>
                            </coding>
                            <text value="NORVASC Tabl 10 mg"/>
                        </code>
                        <form>
                            <coding>
                                <system value="urn:oid:0.4.0.127.0.16.1.1.2.1"/>
                                <code value="10219000"/>
                                <display value="Tablet"/>
                            </coding>
                        </form>
                        <amount>
                            <numerator>
                                <value value="30"/>
                                <unit value="Tablet (unit of presentation)"/>
                                <system value="http://snomed.info/sct"/>
                                <code value="732936001"/>
                            </numerator>
                            <denominator>
                                <value value="1"/>
                                <unit value="Package"/>
                                <system value="http://unitsofmeasure.org"/>
                                <code value="{Package}"/>
                            </denominator>
                        </amount>
                        <ingredient>
                            <itemCodeableConcept>
                                <coding>
                                    <system value="http://snomed.info/sct"/>
                                    <code value="386864001"/>
                                    <display value="Amlodipine (substance)"/>
                                </coding>
                                <text value="Amlodipine"/>
                            </itemCodeableConcept>
                            <strength>
                                <numerator>
                                    <value value="10"/>
                                    <unit value="milligram"/>
                                    <system value="http://unitsofmeasure.org"/>
                                    <code value="mg"/>
                                </numerator>
                                <denominator>
                                    <value value="1"/>
                                    <unit value="Tablet (unit of presentation)"/>
                                    <system value="http://snomed.info/sct"/>
                                    <code value="732936001"/>
                                </denominator>
                            </strength>
                        </ingredient>
                    </Medication>
                </contained>
                <extension url="http://hcisolutions.ch/ig/analyzer/StructureDefinition/infoinputdocument">
                    <extension url="http://hcisolutions.ch/ig/analyzer/StructureDefinition/inputdocumentsource">
                        <valueString value="EPD"/>
                    </extension>
                    <extension url="http://hcisolutions.ch/ig/analyzer/StructureDefinition/inputdocumenttype">
                        <valueCodeableConcept>
                            <coding>
                                <system value="http://loinc.org"/>
                                <code value="56445-0"/>
                                <display value="Medication summary"/>
                            </coding>
                            <text value="Medication Card"/>
                        </valueCodeableConcept>
                    </extension>
                    <extension url="http://hcisolutions.ch/ig/analyzer/StructureDefinition/inputdocumentdate">
                        <valueDateTime value="2012-02-04T14:05:00+01:00"/>
                    </extension>
                    <extension url="http://hcisolutions.ch/ig/analyzer/StructureDefinition/inputdocumentid">
                        <valueIdentifier>
                            <system value="urn:ietf:rfc:3986"/>
                            <value value="urn:uuid:6b6ed376-a7da-44cb-92d1-e75ce1ae73b0"/>
                        </valueIdentifier>
                    </extension>
                </extension>
                <extension url="http://fhir.ch/ig/ch-emed/StructureDefinition/ch-emed-ext-treatmentplan">
                    <extension url="id">
                        <valueIdentifier>
                            <system value="urn:ietf:rfc:3986"/>
                            <value value="urn:uuid:5712fffe-20c6-11e6-b67b-9e71128cae77"/>
                        </valueIdentifier>
                    </extension>
                    <extension url="externalDocumentId">
                        <valueIdentifier>
                            <system value="urn:ietf:rfc:3986"/>
                            <value value="urn:uuid:5712fffe-20c6-11e6-b67b-9e71128cae77"/>
                        </valueIdentifier>
                    </extension>
                </extension>
                <identifier>
                    <system value="urn:ietf:rfc:3986"/>
                    <value value="urn:uuid:534996fe-5e45-40ed-9388-06fa268e13d8"/>
                </identifier>
                <status value="active"/>
                <category>
                    <coding>
                        <system value="http://www.whocc.no/atc"/>
                        <code value="C"/>
                        <display value="Kardiovaskuläres System"/>
                    </coding>
                </category>
                <medicationReference>
                    <reference value="#med"/>
                </medicationReference>
                <subject>
                    <reference value="Patient/MonikaWegmueller"/>
                </subject>
                <informationSource>
                    <reference value="PractitionerRole/FamilienHausarztAtHausarzt"/>
                </informationSource>
                <reasonCode>
                    <text value="Bluthochdruck"/>
                </reasonCode>
                <dosage>
                    <patientInstruction value="-"/>
                    <timing>
                        <repeat>
                            <boundsPeriod>
                                <start value="2012-02-04"/>
                            </boundsPeriod>
                            <when value="MORN"/>
                            <when value="EVE"/>
                        </repeat>
                    </timing>
                    <route>
                        <coding>
                            <system value="urn:oid:0.4.0.127.0.16.1.1.2.1"/>
                            <code value="20053000"/>
                            <display value="Oral use"/>
                        </coding>
                    </route>
                    <doseAndRate>
                        <doseQuantity>
                            <value value="1"/>
                            <unit value="Tablet (unit of presentation)" />
                            <system value="http://snomed.info/sct"/>
                            <code value="732936001"/>
                        </doseQuantity>
                    </doseAndRate>
                </dosage>
            </MedicationStatement>
        </resource>
    </entry>

    <!-- Section entry: MedicationStatement -->
    <entry>
        <fullUrl value="http://test.fhir.ch/r4/MedicationStatement/2-7-MedStatNorvasc-Analyzer"/>
        <resource>
            <MedicationStatement>
                <id value="2-7-MedStatNorvasc-Analyzer"/>
                <contained>
                    <Medication>
                        <id value="med"/>
                        <code>
                            <coding>
                                <system value="urn:oid:2.51.1.1"/>
                                <code value="7680500440334"/>
                                <display value="NORVASC Tabl 10 mg"/>
                            </coding>
                            <text value="NORVASC Tabl 10 mg"/>
                        </code>
                        <form>
                            <coding>
                                <system value="urn:oid:0.4.0.127.0.16.1.1.2.1"/>
                                <code value="10219000"/>
                                <display value="Tablet"/>
                            </coding>
                        </form>
                        <amount>
                            <numerator>
                                <value value="30"/>
                                <unit value="Tablet (unit of presentation)"/>
                                <system value="http://snomed.info/sct"/>
                                <code value="732936001"/>
                            </numerator>
                            <denominator>
                                <value value="1"/>
                                <unit value="Package"/>
                                <system value="http://unitsofmeasure.org"/>
                                <code value="{Package}"/>
                            </denominator>
                        </amount>
                        <ingredient>
                            <itemCodeableConcept>
                                <coding>
                                    <system value="http://snomed.info/sct"/>
                                    <code value="386864001"/>
                                    <display value="Amlodipine (substance)"/>
                                </coding>
                                <text value="Amlodipine"/>
                            </itemCodeableConcept>
                            <strength>
                                <numerator>
                                    <value value="10"/>
                                    <unit value="milligram"/>
                                    <system value="http://unitsofmeasure.org"/>
                                    <code value="mg"/>
                                </numerator>
                                <denominator>
                                    <value value="1"/>
                                    <unit value="Tablet (unit of presentation)"/>
                                    <system value="http://snomed.info/sct"/>
                                    <code value="732936001"/>
                                </denominator>
                            </strength>
                        </ingredient>
                    </Medication>
                </contained>
                <identifier>
                    <system value="urn:ietf:rfc:3986"/>
                    <value value="urn:uuid:9100975d-fd9d-4063-81ce-de69d16d3aa9"/>
                </identifier>
                <status value="unknown"/>
                <category>
                    <coding>
                        <system value="http://www.whocc.no/atc"/>
                        <code value="C"/>
                        <display value="Kardiovaskuläres System"/>
                    </coding>
                </category>
                <medicationReference>
                    <reference value="#med"/>
                </medicationReference>
                <subject>
                    <reference value="Patient/MonikaWegmueller"/>
                </subject>
                <informationSource>
                    <reference value="PractitionerRole/FamilienHausarztAtHausarzt"/>
                </informationSource>
                <!-- History -->
                <derivedFrom>
                    <reference value="MedicationStatement/2-5-MedStatNorvasc-Analyzer"/>
                    <!-- 2-5 Entscheid (Norvasc) -->
                </derivedFrom>
                <derivedFrom>
                    <reference value="Observation/2-6-History"/>
                    <!-- Aenderung von Entscheid zu Rezept (Norvasc) -->
                </derivedFrom>
                <derivedFrom>
                    <reference value="MedicationRequest/2-6-MedReqNorvasc-Analyzer"/>
                    <!-- 2-6 Rezept (Norvasc) -->
                </derivedFrom>
                <derivedFrom>
                    <reference value="Observation/2-7-Norvasc-History"/>
                    <!-- 2-7 Erstellung Medication Card -->
                </derivedFrom>
                <derivedFrom>
                    <reference value="MedicationStatement/2-7-MedStatNorvascFromCard-Analyzer"/>
                    <!-- 2-7 Erstellung Medication Card -->
                </derivedFrom>
                <dosage>
                    <patientInstruction value="-"/>
                    <timing>
                        <repeat>
                            <boundsPeriod>
                                <start value="2012-02-04"/>
                            </boundsPeriod>
                            <when value="MORN"/>
                            <when value="EVE"/>
                        </repeat>
                    </timing>
                    <route>
                        <coding>
                            <system value="urn:oid:0.4.0.127.0.16.1.1.2.1"/>
                            <code value="20053000"/>
                            <display value="Oral use"/>
                        </coding>
                    </route>
                    <doseAndRate>
                        <doseQuantity>
                            <value value="1"/>
                            <unit value="Tablet (unit of presentation)" />
                            <system value="http://snomed.info/sct"/>
                            <code value="732936001"/>
                        </doseQuantity>
                    </doseAndRate>
                </dosage>
            </MedicationStatement>
        </resource>
    </entry>

    <!-- Section entry: Reference from MedicationStatement.derivedFrom (History) -->
    <entry>
        <fullUrl value="http://test.fhir.ch/r4/Observation/2-6-History"/>
        <resource>
            <Observation>
                <id value="2-6-History"/>
                <identifier>
                    <system value="urn:ietf:rfc:3986"/>
                    <value value="urn:uuid:3893faff-9d79-4cca-b903-f66dbe922614"/>
                </identifier>
                <status value="final"/>
                <code>
                    <coding>
                        <system value="urn:oid:1.3.6.1.4.1.19376.1.9.2.1"/>
                        <code value="OK"/>
                    </coding>
                </code>
                <valueCodeableConcept>
                    <coding>
                        <system value="http://hcisolutions.ch/ig/analyzer/CodeSystem/history-changes"/>
                        <code value="sameMedication"/>
                    </coding>
                </valueCodeableConcept>
            </Observation>
        </resource>
    </entry>

    <!-- Section entry: Reference from MedicationStatement.derivedFrom (History) -->
    <entry>
        <fullUrl value="http://test.fhir.ch/r4/Observation/2-7-Norvasc-History"/>
        <resource>
            <Observation>
                <id value="2-7-Norvasc-History"/>
                <identifier>
                    <system value="urn:ietf:rfc:3986"/>
                    <value value="urn:uuid:094129e6-4c25-48bf-a6f5-acc4b7c36132"/>
                </identifier>
                <status value="final"/>
                <code>
                    <coding>
                        <system value="urn:oid:1.3.6.1.4.1.19376.1.9.2.1"/>
                        <code value="OK"/>
                    </coding>
                </code>
                <valueCodeableConcept>
                    <coding>
                        <system value="http://hcisolutions.ch/ig/analyzer/CodeSystem/history-changes"/>
                        <code value="sameMedication"/>
                    </coding>
                </valueCodeableConcept>
            </Observation>
        </resource>
    </entry>
</Bundle>
