<Bundle xmlns="http://hl7.org/fhir">
    <id value="NorvascPRE-ConsolidatedMedicationCard" />
    <identifier>
        <system value="urn:ietf:rfc:3986" />
        <value value="urn:uuid:51391e0f-45a2-4db9-9d7d-2e696d302e91" />
    </identifier>
    <type value="document" />
    <timestamp value="2023-03-17T09:49:06.03199+00:00" />
    <entry>
        <fullUrl value="https://int.documedis.hcisolutions.ch/CE/mda/2020-01/Composition/51391e0f-45a2-4db9-9d7d-2e696d302e91" />
        <resource>
            <Composition>
                <id value="51391e0f-45a2-4db9-9d7d-2e696d302e91" />
                <identifier>
                    <system value="urn:ietf:rfc:3986" />
                    <value value="urn:uuid:51391e0f-45a2-4db9-9d7d-2e696d302e91" />
                </identifier>
                <status value="final" />
                <type>
                    <coding>
                        <system value="http://snomed.info/sct" />
                        <code value="721912009" />
                    </coding>
                </type>
                <subject>
                    <reference value="Patient/dc8f27b2-4df3-4674-8d95-a56f573b0ad3" />
                </subject>
                <date value="2023-03-17T09:49:06.031+00:00" />
                <author>
                    <reference value="Device/Analyzer" />
                </author>
                <title value="Medikationsplan" />
                <section>
                    <entry>
                        <reference value="MedicationStatement/ed767d8c-10a3-4e58-9402-8bbc75fddd5e" />
                    </entry>
                </section>
            </Composition>
        </resource>
    </entry>
    <entry>
        <fullUrl value="https://int.documedis.hcisolutions.ch/CE/mda/2020-01/Device/Analyzer" />
        <resource>
            <Device>
                <id value="Analyzer" />
                <deviceName>
                    <name value="Documedis Medical Data Analyzer CE" />
                    <type value="user-friendly-name" />
                </deviceName>
                <version>
                    <value value="0.0.0.1" />
                </version>
            </Device>
        </resource>
    </entry>
    <entry>
        <fullUrl value="https://int.documedis.hcisolutions.ch/CE/mda/2020-01/Patient/dc8f27b2-4df3-4674-8d95-a56f573b0ad3" />
        <resource>
            <Patient>
                <id value="dc8f27b2-4df3-4674-8d95-a56f573b0ad3" />
                <identifier>
                    <type>
                        <coding>
                            <system value="http://terminology.hl7.org/CodeSystem/v2-0203" />
                            <code value="MR" />
                        </coding>
                    </type>
                    <system value="urn:oid:2.999.1" />
                    <value value="11111111" />
                </identifier>
                <name>
                    <family value="Wegmüller" />
                    <given value="Monika" />
                </name>
                <gender value="female" />
                <birthDate value="1943-05-15" />
                <address>
                    <line value="Wiesenstr. 12" />
                    <city value="Zürich" />
                    <postalCode value="8003" />
                    <country value="CH" />
                </address>
            </Patient>
        </resource>
    </entry>
    <entry>
        <fullUrl value="https://int.documedis.hcisolutions.ch/CE/mda/2020-01/PractitionerRole/304797e9-4b65-4b2f-918b-9875ef6ddb73" />
        <resource>
            <PractitionerRole>
                <id value="304797e9-4b65-4b2f-918b-9875ef6ddb73" />
                <practitioner>
                    <reference value="Practitioner/b999614e-ab52-40e3-9110-e4ad2eed179e" />
                </practitioner>
                <organization>
                    <reference value="Organization/08fed2c0-5ab4-4925-bce0-281f82b81509" />
                </organization>
            </PractitionerRole>
        </resource>
    </entry>
    <entry>
        <fullUrl value="https://int.documedis.hcisolutions.ch/CE/mda/2020-01/Practitioner/b999614e-ab52-40e3-9110-e4ad2eed179e" />
        <resource>
            <Practitioner>
                <id value="b999614e-ab52-40e3-9110-e4ad2eed179e" />
                <identifier>
                    <system value="urn:oid:2.51.1.3" />
                    <value value="7601000234438" />
                </identifier>
                <name>
                    <family value="Hausarzt" />
                    <given value="Familien" />
                </name>
            </Practitioner>
        </resource>
    </entry>
    <entry>
        <fullUrl value="https://int.documedis.hcisolutions.ch/CE/mda/2020-01/Organization/08fed2c0-5ab4-4925-bce0-281f82b81509" />
        <resource>
            <Organization>
                <id value="08fed2c0-5ab4-4925-bce0-281f82b81509" />
                <identifier>
                    <system value="urn:oid:2.51.1.3" />
                    <value value="7601000234438" />
                </identifier>
                <name value="Hausarzt" />
                <address>
                    <line value="Krankenstrasse 2" />
                    <city value="Zürich" />
                    <postalCode value="8005" />
                    <country value="CH" />
                </address>
            </Organization>
        </resource>
    </entry>
    <entry>
        <fullUrl value="https://int.documedis.hcisolutions.ch/CE/mda/2020-01/MedicationStatement/bee46f5a-448f-4465-aefe-87599fc4a419" />
        <resource>
            <MedicationStatement>
                <id value="bee46f5a-448f-4465-aefe-87599fc4a419" />
                <contained>
                    <Medication>
                        <id value="med" />
                        <code>
                            <coding>
                                <system value="urn:oid:2.51.1.1" />
                                <code value="7680500440334" />
                                <display value="Norvasc Tabl 10 mg 30 Stk" />
                            </coding>
                            <text value="NORVASC Tabl 10 mg" />
                        </code>
                        <form>
                            <coding>
                                <system value="urn:oid:0.4.0.127.0.16.1.1.2.1" />
                                <code value="10219000" />
                                <display value="Tablet" />
                            </coding>
                        </form>
                        <amount>
                            <numerator>
                                <value value="30" />
                                <unit value="Tablet (unit of presentation)" />
                                <system value="http://snomed.info/sct" />
                                <code value="732936001" />
                            </numerator>
                            <denominator>
                                <value value="1" />
                                <unit value="Package" />
                                <system value="http://unitsofmeasure.org" />
                                <code value="{Package}" />
                            </denominator>
                        </amount>
                        <ingredient>
                            <itemCodeableConcept>
                                <coding>
                                    <system value="http://snomed.info/sct" />
                                    <code value="386864001" />
                                    <display value="Amlodipine (substance)" />
                                </coding>
                                <text value="Amlodipine" />
                            </itemCodeableConcept>
                            <strength>
                                <numerator>
                                    <value value="10" />
                                    <unit value="milligram" />
                                    <system value="http://unitsofmeasure.org" />
                                    <code value="mg" />
                                </numerator>
                                <denominator>
                                    <value value="1" />
                                    <unit value="Tablet (unit of presentation)" />
                                    <system value="http://snomed.info/sct" />
                                    <code value="732936001" />
                                </denominator>
                            </strength>
                        </ingredient>
                    </Medication>
                </contained>
                <extension url="http://hcisolutions.ch/ig/analyzer/StructureDefinition/infoinputdocument">
                    <extension url="http://hcisolutions.ch/ig/analyzer/StructureDefinition/inputdocumentsource">
                        <valueString value="EPD" />
                    </extension>
                    <extension url="http://hcisolutions.ch/ig/analyzer/StructureDefinition/inputdocumenttype">
                        <valueCodeableConcept>
                            <coding>
                                <system value="http://loinc.org" />
                                <code value="77603-9" />
                            </coding>
                        </valueCodeableConcept>
                    </extension>
                    <extension url="http://hcisolutions.ch/ig/analyzer/StructureDefinition/inputdocumentdate">
                        <valueDateTime value="2012-02-04T14:00:00+01:00" />
                    </extension>
                    <extension url="http://hcisolutions.ch/ig/analyzer/StructureDefinition/parentdocumentid">
                        <valueIdentifier>
                            <system value="urn:ietf:rfc:3986" />
                            <value value="urn:uuid:5712fffe-20c6-11e6-b67b-9e71128cae77" />
                        </valueIdentifier>
                    </extension>
                </extension>
                <identifier>
                    <system value="urn:ietf:rfc:3986" />
                    <value value="urn:uuid:5712fffe-20c6-11e6-b67b-9e71128cae77" />
                </identifier>
                <status value="active" />
                <category>
                    <coding>
                        <system value="http://www.whocc.no/atc" />
                        <code value="C" />
                        <display value="Kardiovaskuläres System" />
                    </coding>
                </category>
                <medicationReference>
                    <reference value="#med" />
                </medicationReference>
                <subject>
                    <reference value="Patient/dc8f27b2-4df3-4674-8d95-a56f573b0ad3" />
                </subject>
                <informationSource>
                    <reference value="PractitionerRole/304797e9-4b65-4b2f-918b-9875ef6ddb73" />
                </informationSource>
                <reasonCode>
                    <text value="Bluthochdruck" />
                </reasonCode>
                <dosage>
                    <patientInstruction value="-" />
                    <timing>
                        <repeat>
                            <boundsPeriod>
                                <start value="2012-02-04" />
                            </boundsPeriod>
                            <when value="MORN" />
                            <when value="EVE" />
                        </repeat>
                    </timing>
                    <route>
                        <coding>
                            <system value="urn:oid:0.4.0.127.0.16.1.1.2.1" />
                            <code value="20053000" />
                            <display value="Oral use" />
                        </coding>
                    </route>
                    <doseAndRate>
                        <doseQuantity>
                            <value value="1" />
                            <unit value="Tablet (unit of presentation)" />
                            <system value="http://snomed.info/sct" />
                            <code value="732936001" />
                        </doseQuantity>
                    </doseAndRate>
                </dosage>
            </MedicationStatement>
        </resource>
    </entry>
    <entry>
        <fullUrl value="https://int.documedis.hcisolutions.ch/CE/mda/2020-01/MedicationRequest/eec2f851-af37-4615-bb78-f0c39be2c60a" />
        <resource>
            <MedicationRequest>
                <id value="eec2f851-af37-4615-bb78-f0c39be2c60a" />
                <contained>
                    <Medication>
                        <id value="med" />
                        <code>
                            <coding>
                                <system value="urn:oid:2.51.1.1" />
                                <code value="7680500440334" />
                                <display value="Norvasc Tabl 10 mg 30 Stk" />
                            </coding>
                            <text value="NORVASC Tabl 10 mg" />
                        </code>
                        <form>
                            <coding>
                                <system value="urn:oid:0.4.0.127.0.16.1.1.2.1" />
                                <code value="10219000" />
                                <display value="Tablet" />
                            </coding>
                        </form>
                        <amount>
                            <numerator>
                                <value value="30" />
                                <unit value="Tablet (unit of presentation)" />
                                <system value="http://snomed.info/sct" />
                                <code value="732936001" />
                            </numerator>
                            <denominator>
                                <value value="1" />
                                <unit value="Package" />
                                <system value="http://unitsofmeasure.org" />
                                <code value="{Package}" />
                            </denominator>
                        </amount>
                        <ingredient>
                            <itemCodeableConcept>
                                <coding>
                                    <system value="http://snomed.info/sct" />
                                    <code value="386864001" />
                                    <display value="Amlodipine (substance)" />
                                </coding>
                                <text value="Amlodipine" />
                            </itemCodeableConcept>
                            <strength>
                                <numerator>
                                    <value value="10" />
                                    <unit value="milligram" />
                                    <system value="http://unitsofmeasure.org" />
                                    <code value="mg" />
                                </numerator>
                                <denominator>
                                    <value value="1" />
                                    <unit value="Tablet (unit of presentation)" />
                                    <system value="http://snomed.info/sct" />
                                    <code value="732936001" />
                                </denominator>
                            </strength>
                        </ingredient>
                    </Medication>
                </contained>
                <extension url="http://hcisolutions.ch/ig/analyzer/StructureDefinition/infoinputdocument">
                    <extension url="http://hcisolutions.ch/ig/analyzer/StructureDefinition/inputdocumentsource">
                        <valueString value="EPD" />
                    </extension>
                    <extension url="http://hcisolutions.ch/ig/analyzer/StructureDefinition/inputdocumenttype">
                        <valueCodeableConcept>
                            <coding>
                                <system value="http://loinc.org" />
                                <code value="57833-6" />
                            </coding>
                        </valueCodeableConcept>
                    </extension>
                    <extension url="http://hcisolutions.ch/ig/analyzer/StructureDefinition/inputdocumentdate">
                        <valueDateTime value="2012-02-04T14:00:00+01:00" />
                    </extension>
                    <extension url="http://hcisolutions.ch/ig/analyzer/StructureDefinition/parentdocumentid">
                        <valueIdentifier>
                            <system value="urn:ietf:rfc:3986" />
                            <value value="urn:uuid:d41d72ba-2100-11e6-b67b-9e71128cae77" />
                        </valueIdentifier>
                    </extension>
                </extension>
                <extension url="http://fhir.ch/ig/ch-emed/StructureDefinition/ch-emed-ext-treatmentplan">
                    <extension url="id">
                        <valueIdentifier>
                            <system value="urn:ietf:rfc:3986" />
                            <value value="urn:uuid:5712fffe-20c6-11e6-b67b-9e71128cae77" />
                        </valueIdentifier>
                    </extension>
                    <extension url="externalDocumentId">
                        <valueIdentifier>
                            <system value="urn:ietf:rfc:3986" />
                            <value value="urn:uuid:5712fffe-20c6-11e6-b67b-9e71128cae77" />
                        </valueIdentifier>
                    </extension>
                </extension>
                <identifier>
                    <system value="urn:ietf:rfc:3986" />
                    <value value="urn:uuid:d41d72ba-2100-11e6-b67b-9e71128cae77" />
                </identifier>
                <status value="active" />
                <intent value="order" />
                <category>
                    <coding>
                        <system value="http://www.whocc.no/atc" />
                        <code value="C" />
                        <display value="Kardiovaskuläres System" />
                    </coding>
                </category>
                <medicationReference>
                    <reference value="#med" />
                </medicationReference>
                <subject>
                    <reference value="Patient/dc8f27b2-4df3-4674-8d95-a56f573b0ad3" />
                </subject>
                <requester>
                    <reference value="PractitionerRole/304797e9-4b65-4b2f-918b-9875ef6ddb73" />
                </requester>
                <reasonCode>
                    <text value="-" />
                </reasonCode>
                <dosageInstruction>
                    <patientInstruction value="-" />
                    <timing>
                        <repeat>
                            <boundsPeriod>
                                <start value="2012-02-04" />
                            </boundsPeriod>
                            <when value="MORN" />
                            <when value="EVE" />
                        </repeat>
                    </timing>
                    <route>
                        <coding>
                            <system value="urn:oid:0.4.0.127.0.16.1.1.2.1" />
                            <code value="20053000" />
                            <display value="Oral use" />
                        </coding>
                    </route>
                    <doseAndRate>
                        <doseQuantity>
                            <value value="1" />
                            <unit value="Tablet (unit of presentation)" />
                            <system value="http://snomed.info/sct" />
                            <code value="732936001" />
                        </doseQuantity>
                    </doseAndRate>
                </dosageInstruction>
                <dispenseRequest>
                    <validityPeriod>
                        <start value="2012-02-04" />
                        <end value="2012-05-03" />
                    </validityPeriod>
                </dispenseRequest>
            </MedicationRequest>
        </resource>
    </entry>
    <entry>
        <fullUrl value="https://int.documedis.hcisolutions.ch/CE/mda/2020-01/MedicationStatement/ed767d8c-10a3-4e58-9402-8bbc75fddd5e" />
        <resource>
            <MedicationStatement>
                <id value="ed767d8c-10a3-4e58-9402-8bbc75fddd5e" />
                <contained>
                    <Medication>
                        <id value="med" />
                        <code>
                            <coding>
                                <system value="urn:oid:2.51.1.1" />
                                <code value="7680500440334" />
                                <display value="Norvasc Tabl 10 mg 30 Stk" />
                            </coding>
                            <text value="NORVASC Tabl 10 mg" />
                        </code>
                        <form>
                            <coding>
                                <system value="urn:oid:0.4.0.127.0.16.1.1.2.1" />
                                <code value="10219000" />
                                <display value="Tablet" />
                            </coding>
                        </form>
                        <amount>
                            <numerator>
                                <value value="30" />
                                <unit value="Tablet (unit of presentation)" />
                                <system value="http://snomed.info/sct" />
                                <code value="732936001" />
                            </numerator>
                            <denominator>
                                <value value="1" />
                                <unit value="Package" />
                                <system value="http://unitsofmeasure.org" />
                                <code value="{Package}" />
                            </denominator>
                        </amount>
                        <ingredient>
                            <itemCodeableConcept>
                                <coding>
                                    <system value="http://snomed.info/sct" />
                                    <code value="386864001" />
                                    <display value="Amlodipine (substance)" />
                                </coding>
                                <text value="Amlodipine" />
                            </itemCodeableConcept>
                            <strength>
                                <numerator>
                                    <value value="10" />
                                    <unit value="milligram" />
                                    <system value="http://unitsofmeasure.org" />
                                    <code value="mg" />
                                </numerator>
                                <denominator>
                                    <value value="1" />
                                    <unit value="Tablet (unit of presentation)" />
                                    <system value="http://snomed.info/sct" />
                                    <code value="732936001" />
                                </denominator>
                            </strength>
                        </ingredient>
                    </Medication>
                </contained>
                <identifier>
                    <system value="urn:ietf:rfc:3986" />
                    <value value="urn:uuid:ed767d8c-10a3-4e58-9402-8bbc75fddd5e" />
                </identifier>
                <status value="unknown" />
                <category>
                    <coding>
                        <system value="http://www.whocc.no/atc" />
                        <code value="C" />
                        <display value="Kardiovaskuläres System" />
                    </coding>
                </category>
                <medicationReference>
                    <reference value="#med" />
                </medicationReference>
                <subject>
                    <reference value="Patient/dc8f27b2-4df3-4674-8d95-a56f573b0ad3" />
                </subject>
                <informationSource>
                    <reference value="PractitionerRole/304797e9-4b65-4b2f-918b-9875ef6ddb73" />
                </informationSource>
                <derivedFrom>
                    <reference value="MedicationStatement/bee46f5a-448f-4465-aefe-87599fc4a419" />
                </derivedFrom>
                <derivedFrom>
                    <reference value="Observation/c6fb2307-4deb-4e05-956a-87b5dd707402" />
                </derivedFrom>
                <derivedFrom>
                    <reference value="MedicationRequest/eec2f851-af37-4615-bb78-f0c39be2c60a" />
                </derivedFrom>
                <dosage>
                    <patientInstruction value="-" />
                    <timing>
                        <repeat>
                            <boundsPeriod>
                                <start value="2012-02-04" />
                            </boundsPeriod>
                            <when value="MORN" />
                            <when value="EVE" />
                        </repeat>
                    </timing>
                    <route>
                        <coding>
                            <system value="urn:oid:0.4.0.127.0.16.1.1.2.1" />
                            <code value="20053000" />
                            <display value="Oral use" />
                        </coding>
                    </route>
                    <doseAndRate>
                        <doseQuantity>
                            <value value="1" />
                            <unit value="Tablet (unit of presentation)" />
                            <system value="http://snomed.info/sct" />
                            <code value="732936001" />
                        </doseQuantity>
                    </doseAndRate>
                </dosage>
            </MedicationStatement>
        </resource>
    </entry>
    <entry>
        <fullUrl value="https://int.documedis.hcisolutions.ch/CE/mda/2020-01/Observation/c6fb2307-4deb-4e05-956a-87b5dd707402" />
        <resource>
            <Observation>
                <id value="c6fb2307-4deb-4e05-956a-87b5dd707402" />
                <identifier>
                    <system value="urn:ietf:rfc:3986" />
                    <value value="urn:uuid:c6fb2307-4deb-4e05-956a-87b5dd707402" />
                </identifier>
                <status value="final" />
                <code>
                    <coding>
                        <system value="urn:oid:1.3.6.1.4.1.19376.1.9.2.1" />
                        <code value="OK" />
                    </coding>
                </code>
                <valueCodeableConcept>
                    <coding>
                        <system value="http://hcisolutions.ch/ig/analyzer/CodeSystem/history-changes" />
                        <code value="sameMedication" />
                    </coding>
                </valueCodeableConcept>
            </Observation>
        </resource>
    </entry>
</Bundle>