<Bundle xmlns="http://hl7.org/fhir">
    <id value="PMP2-ConsolidatedMedicationCard" />
    <identifier>
        <system value="urn:ietf:rfc:3986" />
        <value value="urn:uuid:d9dac12d-92a1-4ab3-bba7-171bd7c30b66" />
    </identifier>
    <type value="document" />
    <timestamp value="2023-03-17T09:49:00.5199704+00:00" />
    <entry>
        <fullUrl value="https://int.documedis.hcisolutions.ch/CE/mda/2020-01/Composition/d9dac12d-92a1-4ab3-bba7-171bd7c30b66" />
        <resource>
            <Composition>
                <id value="d9dac12d-92a1-4ab3-bba7-171bd7c30b66" />
                <identifier>
                    <system value="urn:ietf:rfc:3986" />
                    <value value="urn:uuid:d9dac12d-92a1-4ab3-bba7-171bd7c30b66" />
                </identifier>
                <status value="final" />
                <type>
                    <coding>
                        <system value="http://snomed.info/sct" />
                        <code value="721912009" />
                    </coding>
                </type>
                <subject>
                    <reference value="Patient/70d7b1f5-fda5-4824-8e21-f3ddbd619d63" />
                </subject>
                <date value="2023-03-17T09:49:00.519+00:00" />
                <author>
                    <reference value="Device/Analyzer" />
                </author>
                <title value="Medikationsplan" />
                <section>
                    <entry>
                        <reference value="MedicationStatement/fe1ee226-2ee6-4c09-a9b9-1be939f1e2b2" />
                    </entry>
                </section>
            </Composition>
        </resource>
    </entry>
    <entry>
        <fullUrl value="https://int.documedis.hcisolutions.ch/CE/mda/2020-01/Device/Analyzer" />
        <resource>
            <Device>
                <id value="Analyzer" />
                <deviceName>
                    <name value="Documedis Medical Data Analyzer CE" />
                    <type value="user-friendly-name" />
                </deviceName>
                <version>
                    <value value="0.0.0.1" />
                </version>
            </Device>
        </resource>
    </entry>
    <entry>
        <fullUrl value="https://int.documedis.hcisolutions.ch/CE/mda/2020-01/Patient/70d7b1f5-fda5-4824-8e21-f3ddbd619d63" />
        <resource>
            <Patient>
                <id value="70d7b1f5-fda5-4824-8e21-f3ddbd619d63" />
                <identifier>
                    <use value="official" />
                    <type>
                        <coding>
                            <system value="http://terminology.hl7.org/CodeSystem/v2-0203" />
                            <code value="MR" />
                        </coding>
                    </type>
                    <system value="urn:oid:2.16.756.5.30.1.191.1.0.2.1" />
                    <value value="7a4ec59f-a024-4cfb-bc04-3339c53cb9ac" />
                </identifier>
                <identifier>
                    <use value="secondary" />
                    <type>
                        <coding>
                            <system value="http://terminology.hl7.org/CodeSystem/v2-0203" />
                            <code value="MR" />
                        </coding>
                    </type>
                    <system value="urn:oid:2.16.756.5.30.1.191.4.1.10.1.3" />
                    <value value="L53672539" />
                </identifier>
                <identifier>
                    <use value="secondary" />
                    <type>
                        <coding>
                            <system value="http://terminology.hl7.org/CodeSystem/v2-0203" />
                            <code value="MR" />
                        </coding>
                    </type>
                    <system value="urn:oid:2.16.756.5.30.1.196.3.2.1" />
                    <value value="MAGMED005" />
                </identifier>
                <identifier>
                    <use value="secondary" />
                    <type>
                        <coding>
                            <system value="http://terminology.hl7.org/CodeSystem/v2-0203" />
                            <code value="MR" />
                        </coding>
                    </type>
                    <system value="urn:oid:2.16.756.5.30.1.196.2.2.1" />
                    <value value="3486389" />
                </identifier>
                <identifier>
                    <use value="secondary" />
                    <type>
                        <coding>
                            <system value="http://terminology.hl7.org/CodeSystem/v2-0203" />
                            <code value="MR" />
                        </coding>
                    </type>
                    <system value="urn:oid:2.16.756.5.30.1.196.3.2.1" />
                    <value value="3503409" />
                </identifier>
                <identifier>
                    <use value="secondary" />
                    <type>
                        <coding>
                            <system value="http://terminology.hl7.org/CodeSystem/v2-0203" />
                            <code value="MR" />
                        </coding>
                    </type>
                    <system value="urn:oid:2.16.756.5.30.1.196.2.2.1" />
                    <value value="3505915" />
                </identifier>
                <identifier>
                    <use value="secondary" />
                    <type>
                        <coding>
                            <system value="http://terminology.hl7.org/CodeSystem/v2-0203" />
                            <code value="MR" />
                        </coding>
                    </type>
                    <system value="urn:oid:2.999.756.42.2" />
                    <value value="12345678" />
                </identifier>
                <identifier>
                    <use value="secondary" />
                    <type>
                        <coding>
                            <system value="http://terminology.hl7.org/CodeSystem/v2-0203" />
                            <code value="MR" />
                        </coding>
                    </type>
                    <system value="urn:oid:2.16.756.5.30.1.128.4.1.4.2.3.2.1.1.1" />
                    <value value="99146298" />
                </identifier>
                <identifier>
                    <use value="secondary" />
                    <type>
                        <coding>
                            <system value="http://terminology.hl7.org/CodeSystem/v2-0203" />
                            <code value="MR" />
                        </coding>
                    </type>
                    <system value="urn:oid:2.16.756.5.30.1.196.3.2.1" />
                    <value value="3475203" />
                </identifier>
                <identifier>
                    <use value="secondary" />
                    <type>
                        <coding>
                            <system value="http://terminology.hl7.org/CodeSystem/v2-0203" />
                            <code value="MR" />
                        </coding>
                    </type>
                    <system value="urn:oid:2.16.756.5.30.1.191.1.0.12.3.101" />
                    <value value="02fc1dd1-fc13-4ca0-874c-b8372b7e6cfc" />
                </identifier>
                <active value="true" />
                <name>
                    <family value="Behluli-Qazimi" />
                    <given value="Leandra Corina" />
                </name>
                <gender value="female" />
                <birthDate value="2002-12-21" />
            </Patient>
        </resource>
    </entry>
    <entry>
        <fullUrl value="https://int.documedis.hcisolutions.ch/CE/mda/2020-01/PractitionerRole/0d79f981-910b-478c-a446-31714990cfd1" />
        <resource>
            <PractitionerRole>
                <id value="0d79f981-910b-478c-a446-31714990cfd1" />
                <practitioner>
                    <reference value="Practitioner/e49b963b-4de0-400a-9df5-2940c4c98ad0" />
                </practitioner>
                <organization>
                    <reference value="Organization/55de13a3-6915-4f7c-b054-70e302ebf40d" />
                </organization>
            </PractitionerRole>
        </resource>
    </entry>
    <entry>
        <fullUrl value="https://int.documedis.hcisolutions.ch/CE/mda/2020-01/Practitioner/e49b963b-4de0-400a-9df5-2940c4c98ad0" />
        <resource>
            <Practitioner>
                <id value="e49b963b-4de0-400a-9df5-2940c4c98ad0" />
                <identifier>
                    <system value="urn:oid:2.51.1.3" />
                    <value value="7601000201041" />
                </identifier>
                <name>
                    <family value="Rochat" />
                    <given value="Dr" />
                    <prefix value="Dr. med." />
                </name>
            </Practitioner>
        </resource>
    </entry>
    <entry>
        <fullUrl value="https://int.documedis.hcisolutions.ch/CE/mda/2020-01/Organization/55de13a3-6915-4f7c-b054-70e302ebf40d" />
        <resource>
            <Organization>
                <id value="55de13a3-6915-4f7c-b054-70e302ebf40d" />
                <identifier>
                    <system value="urn:oid:2.51.1.3" />
                    <value value="7601000201041" />
                </identifier>
                <name value="Médecin de famille" />
                <address>
                    <line value="Krankenstrasse 2" />
                    <city value="Zürich" />
                    <postalCode value="8005" />
                    <country value="CH" />
                </address>
            </Organization>
        </resource>
    </entry>
    <entry>
        <fullUrl value="https://int.documedis.hcisolutions.ch/CE/mda/2020-01/PractitionerRole/17f6bcad-6062-4141-96d4-1847bbb3516e" />
        <resource>
            <PractitionerRole>
                <id value="17f6bcad-6062-4141-96d4-1847bbb3516e" />
                <practitioner>
                    <reference value="Practitioner/6e2e570c-5788-4e1a-9fda-3b5d80bfbc78" />
                </practitioner>
                <organization>
                    <reference value="Organization/81d83d90-aa3a-4ec7-aea9-064575a7b8ff" />
                </organization>
            </PractitionerRole>
        </resource>
    </entry>
    <entry>
        <fullUrl value="https://int.documedis.hcisolutions.ch/CE/mda/2020-01/Practitioner/6e2e570c-5788-4e1a-9fda-3b5d80bfbc78" />
        <resource>
            <Practitioner>
                <id value="6e2e570c-5788-4e1a-9fda-3b5d80bfbc78" />
                <identifier>
                    <system value="urn:oid:2.51.1.3" />
                    <value value="7601000876546" />
                </identifier>
                <name>
                    <family value="Pharm" />
                    <given value="Pharmacien" />
                </name>
            </Practitioner>
        </resource>
    </entry>
    <entry>
        <fullUrl value="https://int.documedis.hcisolutions.ch/CE/mda/2020-01/Organization/81d83d90-aa3a-4ec7-aea9-064575a7b8ff" />
        <resource>
            <Organization>
                <id value="81d83d90-aa3a-4ec7-aea9-064575a7b8ff" />
                <identifier>
                    <system value="urn:oid:2.51.1.3" />
                    <value value="7601000876546" />
                </identifier>
                <name value="Pharmacie" />
                <address>
                    <line value="Apothekerstrasse 22" />
                    <city value="Zürich" />
                    <postalCode value="8005" />
                    <country value="CH" />
                </address>
            </Organization>
        </resource>
    </entry>
    <entry>
        <fullUrl value="https://int.documedis.hcisolutions.ch/CE/mda/2020-01/MedicationStatement/a02ee526-fb6a-4c34-8570-70cb29e54dc8" />
        <resource>
            <MedicationStatement>
                <id value="a02ee526-fb6a-4c34-8570-70cb29e54dc8" />
                <contained>
                    <Medication>
                        <id value="medication-1" />
                        <code>
                            <coding>
                                <system value="urn:oid:2.51.1.1" />
                                <code value="7680471020733" />
                                <display value="Temesta Expidet Schmelztabl 1 mg 20 Stk" />
                            </coding>
                            <text value="TEMESTA Expidet Schmelztabl 1 mg" />
                        </code>
                        <form>
                            <coding>
                                <system value="urn:oid:0.4.0.127.0.16.1.1.2.1" />
                                <code value="10221000" />
                                <display value="Film-coated tablet" />
                            </coding>
                        </form>
                        <amount>
                            <numerator>
                                <value value="20" />
                                <unit value="Piece(s)" />
                                <system value="http://unitsofmeasure.org" />
                                <code value="{Piece}" />
                            </numerator>
                            <denominator>
                                <value value="1" />
                                <unit value="Package" />
                                <system value="http://unitsofmeasure.org" />
                                <code value="{Package}" />
                            </denominator>
                        </amount>
                        <ingredient>
                            <itemCodeableConcept>
                                <coding>
                                    <system value="http://snomed.info/sct" />
                                    <code value="387106007" />
                                    <display value="Lorazepam (substance)" />
                                </coding>
                                <text value="Lorazépam" />
                            </itemCodeableConcept>
                            <strength>
                                <numerator>
                                    <value value="1" />
                                    <unit value="milligram" />
                                    <system value="http://unitsofmeasure.org" />
                                    <code value="mg" />
                                </numerator>
                                <denominator>
                                    <value value="1" />
                                    <unit value="Tablet (unit of presentation)" />
                                    <system value="http://snomed.info/sct" />
                                    <code value="732936001" />
                                </denominator>
                            </strength>
                        </ingredient>
                    </Medication>
                </contained>
                <extension url="http://hcisolutions.ch/ig/analyzer/StructureDefinition/infoinputdocument">
                    <extension url="http://hcisolutions.ch/ig/analyzer/StructureDefinition/inputdocumentsource">
                        <valueString value="PMP" />
                    </extension>
                    <extension url="http://hcisolutions.ch/ig/analyzer/StructureDefinition/inputdocumenttype">
                        <valueCodeableConcept>
                            <coding>
                                <system value="http://loinc.org" />
                                <code value="56445-0" />
                            </coding>
                            <text value="Medication List" />
                        </valueCodeableConcept>
                    </extension>
                    <extension url="http://hcisolutions.ch/ig/analyzer/StructureDefinition/inputdocumentdate">
                        <valueDateTime value="2023-02-16T09:12:55.482+01:00" />
                    </extension>
                    <extension url="http://hcisolutions.ch/ig/analyzer/StructureDefinition/parentdocumentid">
                        <valueIdentifier>
                            <system value="urn:ietf:rfc:3986" />
                            <value value="urn:uuid:7ade729c-a8c6-4b23-8daa-2c78a22ce153" />
                        </valueIdentifier>
                    </extension>
                </extension>
                <extension url="http://fhir.ch/ig/ch-emed/StructureDefinition/ch-emed-ext-treatmentplan">
                    <extension url="id">
                        <valueIdentifier>
                            <system value="urn:ietf:rfc:3986" />
                            <value value="urn:uuid:7ade729c-a8c6-4b23-8daa-2c78a22ce153" />
                        </valueIdentifier>
                    </extension>
                    <extension url="externalDocumentId">
                        <valueIdentifier>
                            <system value="urn:ietf:rfc:3986" />
                            <value value="urn:uuid:7ade729c-a8c6-4b23-8daa-2c78a22ce153" />
                        </valueIdentifier>
                    </extension>
                </extension>
                <identifier>
                    <system value="urn:ietf:rfc:3986" />
                    <value value="urn:uuid:7ade729c-a8c6-4b23-8daa-2c78a22ce153" />
                </identifier>
                <status value="completed" />
                <category>
                    <coding>
                        <system value="http://www.whocc.no/atc" />
                        <code value="N" />
                        <display value="Nervensystem" />
                    </coding>
                </category>
                <medicationReference>
                    <reference value="#medication-1" />
                </medicationReference>
                <subject>
                    <reference value="Patient/70d7b1f5-fda5-4824-8e21-f3ddbd619d63" />
                </subject>
                <informationSource>
                    <reference value="PractitionerRole/0d79f981-910b-478c-a446-31714990cfd1" />
                </informationSource>
                <reasonCode>
                    <text value="pour dormir" />
                </reasonCode>
                <dosage id="#dosage-1">
                    <patientInstruction value="laisser fondre 1 comprimé sous la langue ½ heure avant le coucher (si aucune amélioration au bout de 4 jours, reprendre contact avec le médecin)" />
                    <timing>
                        <repeat>
                            <boundsPeriod>
                                <start value="2019-02-12" />
                                <end value="2019-02-15" />
                            </boundsPeriod>
                            <when value="NIGHT" />
                        </repeat>
                    </timing>
                    <route>
                        <coding>
                            <system value="urn:oid:0.4.0.127.0.16.1.1.2.1" />
                            <code value="20053000" />
                            <display value="Oral use" />
                        </coding>
                    </route>
                    <doseAndRate>
                        <doseQuantity>
                            <value value="1" />
                            <unit value="Tablet (unit of presentation)" />
                            <system value="http://snomed.info/sct" />
                            <code value="732936001" />
                        </doseQuantity>
                    </doseAndRate>
                </dosage>
            </MedicationStatement>
        </resource>
    </entry>
    <entry>
        <fullUrl value="https://int.documedis.hcisolutions.ch/CE/mda/2020-01/Observation/8b25d419-5a2e-4e7b-abf0-e2f1309459a9" />
        <resource>
            <Observation>
                <id value="8b25d419-5a2e-4e7b-abf0-e2f1309459a9" />
                <extension url="http://hcisolutions.ch/ig/analyzer/StructureDefinition/infoinputdocument">
                    <extension url="http://hcisolutions.ch/ig/analyzer/StructureDefinition/inputdocumentsource">
                        <valueString value="PMP" />
                    </extension>
                    <extension url="http://hcisolutions.ch/ig/analyzer/StructureDefinition/inputdocumenttype">
                        <valueCodeableConcept>
                            <coding>
                                <system value="http://loinc.org" />
                                <code value="56445-0" />
                            </coding>
                            <text value="Medication List" />
                        </valueCodeableConcept>
                    </extension>
                    <extension url="http://hcisolutions.ch/ig/analyzer/StructureDefinition/inputdocumentdate">
                        <valueDateTime value="2023-02-16T09:12:55.482+01:00" />
                    </extension>
                    <extension url="http://hcisolutions.ch/ig/analyzer/StructureDefinition/parentdocumentid">
                        <valueIdentifier>
                            <system value="urn:ietf:rfc:3986" />
                            <value value="urn:uuid:63e4ae3d-3a79-476b-bb03-aa23a5e3e7bf" />
                        </valueIdentifier>
                    </extension>
                </extension>
                <extension url="http://fhir.ch/ig/ch-emed/StructureDefinition/ch-emed-ext-pharmaceuticaladvice">
                    <extension url="id">
                        <valueIdentifier>
                            <system value="urn:ietf:rfc:3986" />
                            <value value="urn:uuid:63e4ae3d-3a79-476b-bb03-aa23a5e3e7bf" />
                        </valueIdentifier>
                    </extension>
                    <extension url="externalDocumentId">
                        <valueIdentifier>
                            <system value="urn:ietf:rfc:3986" />
                            <value value="urn:uuid:63e4ae3d-3a79-476b-bb03-aa23a5e3e7bf" />
                        </valueIdentifier>
                    </extension>
                </extension>
                <extension url="http://fhir.ch/ig/ch-emed/StructureDefinition/ch-emed-ext-treatmentplan">
                    <extension url="id">
                        <valueIdentifier>
                            <system value="urn:ietf:rfc:3986" />
                            <value value="urn:uuid:7ade729c-a8c6-4b23-8daa-2c78a22ce153" />
                        </valueIdentifier>
                    </extension>
                    <extension url="externalDocumentId">
                        <valueIdentifier>
                            <system value="urn:ietf:rfc:3986" />
                            <value value="urn:uuid:7ade729c-a8c6-4b23-8daa-2c78a22ce153" />
                        </valueIdentifier>
                    </extension>
                </extension>
                <identifier>
                    <system value="urn:ietf:rfc:3986" />
                    <value value="urn:uuid:1f88431a-80e5-46b3-a928-40bc5a63b08e" />
                </identifier>
                <status value="final" />
                <code>
                    <coding>
                        <system value="urn:oid:1.3.6.1.4.1.19376.1.9.2.1" />
                        <code value="CANCEL" />
                    </coding>
                </code>
                <subject>
                    <reference value="Patient/70d7b1f5-fda5-4824-8e21-f3ddbd619d63" />
                </subject>
                <effectiveDateTime value="2019-02-15T11:00:00+01:00" />
                <performer>
                    <reference value="PractitionerRole/17f6bcad-6062-4141-96d4-1847bbb3516e" />
                </performer>
                <note>
                    <text value="selon téléphone avec le médecin, arrêter le traitement car inefficace" />
                </note>
            </Observation>
        </resource>
    </entry>
    <entry>
        <fullUrl value="https://int.documedis.hcisolutions.ch/CE/mda/2020-01/MedicationStatement/fe1ee226-2ee6-4c09-a9b9-1be939f1e2b2" />
        <resource>
            <MedicationStatement>
                <id value="fe1ee226-2ee6-4c09-a9b9-1be939f1e2b2" />
                <contained>
                    <Medication>
                        <id value="medication-1" />
                        <code>
                            <coding>
                                <system value="urn:oid:2.51.1.1" />
                                <code value="7680471020733" />
                                <display value="Temesta Expidet Schmelztabl 1 mg 20 Stk" />
                            </coding>
                            <text value="TEMESTA Expidet Schmelztabl 1 mg" />
                        </code>
                        <form>
                            <coding>
                                <system value="urn:oid:0.4.0.127.0.16.1.1.2.1" />
                                <code value="10221000" />
                                <display value="Film-coated tablet" />
                            </coding>
                        </form>
                        <amount>
                            <numerator>
                                <value value="20" />
                                <unit value="Piece(s)" />
                                <system value="http://unitsofmeasure.org" />
                                <code value="{Piece}" />
                            </numerator>
                            <denominator>
                                <value value="1" />
                                <unit value="Package" />
                                <system value="http://unitsofmeasure.org" />
                                <code value="{Package}" />
                            </denominator>
                        </amount>
                        <ingredient>
                            <itemCodeableConcept>
                                <coding>
                                    <system value="http://snomed.info/sct" />
                                    <code value="387106007" />
                                    <display value="Lorazepam (substance)" />
                                </coding>
                                <text value="Lorazépam" />
                            </itemCodeableConcept>
                            <strength>
                                <numerator>
                                    <value value="1" />
                                    <unit value="milligram" />
                                    <system value="http://unitsofmeasure.org" />
                                    <code value="mg" />
                                </numerator>
                                <denominator>
                                    <value value="1" />
                                    <unit value="Tablet (unit of presentation)" />
                                    <system value="http://snomed.info/sct" />
                                    <code value="732936001" />
                                </denominator>
                            </strength>
                        </ingredient>
                    </Medication>
                </contained>
                <identifier>
                    <system value="urn:ietf:rfc:3986" />
                    <value value="urn:uuid:fe1ee226-2ee6-4c09-a9b9-1be939f1e2b2" />
                </identifier>
                <status value="unknown" />
                <category>
                    <coding>
                        <system value="http://www.whocc.no/atc" />
                        <code value="N" />
                        <display value="Nervensystem" />
                    </coding>
                </category>
                <medicationReference>
                    <reference value="#medication-1" />
                </medicationReference>
                <subject>
                    <reference value="Patient/70d7b1f5-fda5-4824-8e21-f3ddbd619d63" />
                </subject>
                <informationSource>
                    <reference value="PractitionerRole/0d79f981-910b-478c-a446-31714990cfd1" />
                </informationSource>
                <derivedFrom>
                    <reference value="MedicationStatement/a02ee526-fb6a-4c34-8570-70cb29e54dc8" />
                </derivedFrom>
                <derivedFrom>
                    <reference value="Observation/2c104b3e-0c68-4609-86d7-7867c048f4fa" />
                </derivedFrom>
                <derivedFrom>
                    <reference value="Observation/8b25d419-5a2e-4e7b-abf0-e2f1309459a9" />
                </derivedFrom>
                <dosage>
                    <text value="-" />
                </dosage>
            </MedicationStatement>
        </resource>
    </entry>
    <entry>
        <fullUrl value="https://int.documedis.hcisolutions.ch/CE/mda/2020-01/Observation/2c104b3e-0c68-4609-86d7-7867c048f4fa" />
        <resource>
            <Observation>
                <id value="2c104b3e-0c68-4609-86d7-7867c048f4fa" />
                <identifier>
                    <system value="urn:ietf:rfc:3986" />
                    <value value="urn:uuid:2c104b3e-0c68-4609-86d7-7867c048f4fa" />
                </identifier>
                <status value="final" />
                <code>
                    <coding>
                        <system value="urn:oid:1.3.6.1.4.1.19376.1.9.2.1" />
                        <code value="CANCEL" />
                    </coding>
                </code>
                <valueCodeableConcept>
                    <coding>
                        <system value="http://hcisolutions.ch/ig/analyzer/CodeSystem/history-changes" />
                        <code value="stop" />
                    </coding>
                </valueCodeableConcept>
            </Observation>
        </resource>
    </entry>
</Bundle>