<Bundle xmlns="http://hl7.org/fhir">
    <id value="PMP2-ConsolidatedMedicationCard"/>
    <identifier>
        <system value="urn:ietf:rfc:3986" />
        <value value="urn:uuid:53b9f0ea-e7e1-4c61-8e9d-229ef185a4d0" />
    </identifier>
    <type value="document" />
    <timestamp value="2023-02-23T10:54:06.6024879+00:00" />
    <entry>
        <fullUrl value="https://int.documedis.hcisolutions.ch/CE/mda/2020-01/Composition/53b9f0ea-e7e1-4c61-8e9d-229ef185a4d0" />
        <resource>
            <Composition>
                <id value="53b9f0ea-e7e1-4c61-8e9d-229ef185a4d0" />
                <identifier>
                    <system value="urn:ietf:rfc:3986" />
                    <value value="urn:uuid:53b9f0ea-e7e1-4c61-8e9d-229ef185a4d0" />
                </identifier>
                <status value="final" />
                <type>
                    <coding>
                        <system value="http://snomed.info/sct" />
                        <code value="721912009" />
                    </coding>
                </type>
                <subject>
                    <reference value="Patient/4a975fbf-0eb1-4bdb-8cfe-f13c83b27683" />
                </subject>
                <date value="2023-02-23T10:54:06.602+00:00" />
                <author>
                    <reference value="Device/Analyzer" />
                </author>
                <title value="Medikationsplan" />
                <section>
                    <entry>
                        <reference value="MedicationStatement/83af0652-683a-43bf-9e9e-968f6df586d3" />
                    </entry>
                </section>
            </Composition>
        </resource>
    </entry>
    <entry>
        <fullUrl value="https://int.documedis.hcisolutions.ch/CE/mda/2020-01/Device/Analyzer" />
        <resource>
            <Device>
                <id value="Analyzer" />
                <deviceName>
                    <name value="Documedis Medical Data Analyzer CE" />
                    <type value="user-friendly-name" />
                </deviceName>
                <version>
                    <value value="0.0.0.1" />
                </version>
            </Device>
        </resource>
    </entry>
    <entry>
        <fullUrl value="https://int.documedis.hcisolutions.ch/CE/mda/2020-01/Patient/4a975fbf-0eb1-4bdb-8cfe-f13c83b27683" />
        <resource>
            <Patient>
                <id value="4a975fbf-0eb1-4bdb-8cfe-f13c83b27683" />
                <identifier>
                    <use value="official" />
                    <type>
                        <coding>
                            <system value="http://terminology.hl7.org/CodeSystem/v2-0203" />
                            <code value="MR" />
                        </coding>
                    </type>
                    <system value="urn:oid:2.16.756.5.30.1.191.1.0.2.1" />
                    <value value="7a4ec59f-a024-4cfb-bc04-3339c53cb9ac" />
                </identifier>
                <identifier>
                    <use value="secondary" />
                    <type>
                        <coding>
                            <system value="http://terminology.hl7.org/CodeSystem/v2-0203" />
                            <code value="MR" />
                        </coding>
                    </type>
                    <system value="urn:oid:2.16.756.5.30.1.191.4.1.10.1.3" />
                    <value value="L53672539" />
                </identifier>
                <identifier>
                    <use value="secondary" />
                    <type>
                        <coding>
                            <system value="http://terminology.hl7.org/CodeSystem/v2-0203" />
                            <code value="MR" />
                        </coding>
                    </type>
                    <system value="urn:oid:2.16.756.5.30.1.196.3.2.1" />
                    <value value="MAGMED005" />
                </identifier>
                <identifier>
                    <use value="secondary" />
                    <type>
                        <coding>
                            <system value="http://terminology.hl7.org/CodeSystem/v2-0203" />
                            <code value="MR" />
                        </coding>
                    </type>
                    <system value="urn:oid:2.16.756.5.30.1.196.2.2.1" />
                    <value value="3486389" />
                </identifier>
                <identifier>
                    <use value="secondary" />
                    <type>
                        <coding>
                            <system value="http://terminology.hl7.org/CodeSystem/v2-0203" />
                            <code value="MR" />
                        </coding>
                    </type>
                    <system value="urn:oid:2.16.756.5.30.1.196.3.2.1" />
                    <value value="3503409" />
                </identifier>
                <identifier>
                    <use value="secondary" />
                    <type>
                        <coding>
                            <system value="http://terminology.hl7.org/CodeSystem/v2-0203" />
                            <code value="MR" />
                        </coding>
                    </type>
                    <system value="urn:oid:2.16.756.5.30.1.196.2.2.1" />
                    <value value="3505915" />
                </identifier>
                <identifier>
                    <use value="secondary" />
                    <type>
                        <coding>
                            <system value="http://terminology.hl7.org/CodeSystem/v2-0203" />
                            <code value="MR" />
                        </coding>
                    </type>
                    <system value="urn:oid:2.999.756.42.2" />
                    <value value="12345678" />
                </identifier>
                <identifier>
                    <use value="secondary" />
                    <type>
                        <coding>
                            <system value="http://terminology.hl7.org/CodeSystem/v2-0203" />
                            <code value="MR" />
                        </coding>
                    </type>
                    <system value="urn:oid:2.16.756.5.30.1.128.4.1.4.2.3.2.1.1.1" />
                    <value value="99146298" />
                </identifier>
                <identifier>
                    <use value="secondary" />
                    <type>
                        <coding>
                            <system value="http://terminology.hl7.org/CodeSystem/v2-0203" />
                            <code value="MR" />
                        </coding>
                    </type>
                    <system value="urn:oid:2.16.756.5.30.1.196.3.2.1" />
                    <value value="3475203" />
                </identifier>
                <identifier>
                    <use value="secondary" />
                    <type>
                        <coding>
                            <system value="http://terminology.hl7.org/CodeSystem/v2-0203" />
                            <code value="MR" />
                        </coding>
                    </type>
                    <system value="urn:oid:2.16.756.5.30.1.191.1.0.12.3.101" />
                    <value value="02fc1dd1-fc13-4ca0-874c-b8372b7e6cfc" />
                </identifier>
                <active value="true" />
                <name>
                    <family value="Behluli-Qazimi" />
                    <given value="Leandra Corina" />
                </name>
                <gender value="female" />
                <birthDate value="2002-12-21" />
            </Patient>
        </resource>
    </entry>
    <entry>
        <fullUrl value="https://int.documedis.hcisolutions.ch/CE/mda/2020-01/PractitionerRole/bad91044-768c-4226-9640-66eff28a1670" />
        <resource>
            <PractitionerRole>
                <id value="bad91044-768c-4226-9640-66eff28a1670" />
                <practitioner>
                    <reference value="Practitioner/0f4cfac0-e6de-441e-b0c5-57feb294d3e2" />
                </practitioner>
                <organization>
                    <reference value="Organization/012674d1-8bb5-4d0a-a3f8-b149c1490dc2" />
                </organization>
            </PractitionerRole>
        </resource>
    </entry>
    <entry>
        <fullUrl value="https://int.documedis.hcisolutions.ch/CE/mda/2020-01/Practitioner/0f4cfac0-e6de-441e-b0c5-57feb294d3e2" />
        <resource>
            <Practitioner>
                <id value="0f4cfac0-e6de-441e-b0c5-57feb294d3e2" />
                <identifier>
                    <system value="urn:oid:2.51.1.3" />
                    <value value="7601000201041" />
                </identifier>
                <name>
                    <family value="Rochat" />
                    <given value="Dr" />
                    <prefix value="Dr. med." />
                </name>
            </Practitioner>
        </resource>
    </entry>
    <entry>
        <fullUrl value="https://int.documedis.hcisolutions.ch/CE/mda/2020-01/Organization/012674d1-8bb5-4d0a-a3f8-b149c1490dc2" />
        <resource>
            <Organization>
                <id value="012674d1-8bb5-4d0a-a3f8-b149c1490dc2" />
                <identifier>
                    <system value="urn:oid:2.51.1.3" />
                    <value value="7601000201041" />
                </identifier>
                <name value="Médecin de famille" />
                <address>
                    <line value="Krankenstrasse 2" />
                    <city value="Zürich" />
                    <postalCode value="8005" />
                    <country value="CH" />
                </address>
            </Organization>
        </resource>
    </entry>
    <entry>
        <fullUrl value="https://int.documedis.hcisolutions.ch/CE/mda/2020-01/PractitionerRole/5190e83b-fa1b-4fc8-b7a4-b7b72b34d28f" />
        <resource>
            <PractitionerRole>
                <id value="5190e83b-fa1b-4fc8-b7a4-b7b72b34d28f" />
                <practitioner>
                    <reference value="Practitioner/4a97bdad-71d6-4b97-b195-0c8a850c55f7" />
                </practitioner>
                <organization>
                    <reference value="Organization/317d209d-68b7-4ed3-ac52-df3888d31f75" />
                </organization>
            </PractitionerRole>
        </resource>
    </entry>
    <entry>
        <fullUrl value="https://int.documedis.hcisolutions.ch/CE/mda/2020-01/Practitioner/4a97bdad-71d6-4b97-b195-0c8a850c55f7" />
        <resource>
            <Practitioner>
                <id value="4a97bdad-71d6-4b97-b195-0c8a850c55f7" />
                <identifier>
                    <system value="urn:oid:2.51.1.3" />
                    <value value="7601000876546" />
                </identifier>
                <name>
                    <family value="Pharm" />
                    <given value="Pharmacien" />
                </name>
            </Practitioner>
        </resource>
    </entry>
    <entry>
        <fullUrl value="https://int.documedis.hcisolutions.ch/CE/mda/2020-01/Organization/317d209d-68b7-4ed3-ac52-df3888d31f75" />
        <resource>
            <Organization>
                <id value="317d209d-68b7-4ed3-ac52-df3888d31f75" />
                <identifier>
                    <system value="urn:oid:2.51.1.3" />
                    <value value="7601000876546" />
                </identifier>
                <name value="Pharmacie" />
                <address>
                    <line value="Apothekerstrasse 22" />
                    <city value="Zürich" />
                    <postalCode value="8005" />
                    <country value="CH" />
                </address>
            </Organization>
        </resource>
    </entry>
    <entry>
        <fullUrl value="https://int.documedis.hcisolutions.ch/CE/mda/2020-01/MedicationStatement/262c7b3e-166d-4b05-9626-d75c67b8a2de" />
        <resource>
            <MedicationStatement>
                <id value="262c7b3e-166d-4b05-9626-d75c67b8a2de" />
                <contained>
                    <Medication>
                        <id value="medication-1" />
                        <code>
                            <coding>
                                <system value="urn:oid:2.51.1.1" />
                                <code value="7680471020733" />
                                <display value="Temesta Expidet Schmelztabl 1 mg 20 Stk" />
                            </coding>
                            <text value="TEMESTA Expidet Schmelztabl 1 mg" />
                        </code>
                        <form>
                            <coding>
                                <system value="urn:oid:0.4.0.127.0.16.1.1.2.1" />
                                <code value="10221000" />
                                <display value="Film-coated tablet" />
                            </coding>
                        </form>
                        <amount>
                            <numerator>
                                <value value="20" />
                                <unit value="Piece(s)" />
                                <system value="http://unitsofmeasure.org" />
                                <code value="{Piece}" />
                            </numerator>
                            <denominator>
                                <value value="1" />
                                <unit value="Package" />
                                <system value="http://unitsofmeasure.org" />
                                <code value="{Package}" />
                            </denominator>
                        </amount>
                        <ingredient>
                            <itemCodeableConcept>
                                <coding>
                                    <system value="http://snomed.info/sct" />
                                    <code value="387106007" />
                                    <display value="Lorazepam (substance)" />
                                </coding>
                                <text value="Lorazépam" />
                            </itemCodeableConcept>
                            <strength>
                                <numerator>
                                    <value value="1" />
                                    <unit value="milligram" />
                                    <system value="http://unitsofmeasure.org" />
                                    <code value="mg" />
                                </numerator>
                                <denominator>
                                    <value value="1" />
                                    <unit value="Tablet (unit of presentation)" />
                                    <system value="http://snomed.info/sct" />
                                    <code value="732936001" />
                                </denominator>
                            </strength>
                        </ingredient>
                    </Medication>
                </contained>
                <extension url="http://hcisolutions.ch/ig/analyzer/StructureDefinition/infoinputdocument">
                    <extension url="http://hcisolutions.ch/ig/analyzer/StructureDefinition/inputdocumentsource">
                        <valueString value="PMP" />
                    </extension>
                    <extension url="http://hcisolutions.ch/ig/analyzer/StructureDefinition/inputdocumenttype">
                        <valueCodeableConcept>
                            <coding>
                                <system value="http://loinc.org" />
                                <code value="56445-0" />
                            </coding>
                            <text value="Medication List" />
                        </valueCodeableConcept>
                    </extension>
                    <extension url="http://hcisolutions.ch/ig/analyzer/StructureDefinition/inputdocumentdate">
                        <valueDateTime value="2023-02-16T09:12:55.482+01:00" />
                    </extension>
                    <extension url="http://hcisolutions.ch/ig/analyzer/StructureDefinition/parentdocumentid">
                        <valueIdentifier>
                            <system value="urn:ietf:rfc:3986" />
                            <value value="urn:uuid:7ade729c-a8c6-4b23-8daa-2c78a22ce153" />
                        </valueIdentifier>
                    </extension>
                </extension>
                <extension url="http://fhir.ch/ig/ch-emed/StructureDefinition/ch-emed-ext-treatmentplan">
                    <extension url="id">
                        <valueIdentifier>
                            <system value="urn:ietf:rfc:3986" />
                            <value value="urn:uuid:7ade729c-a8c6-4b23-8daa-2c78a22ce153" />
                        </valueIdentifier>
                    </extension>
                    <extension url="externalDocumentId">
                        <valueIdentifier>
                            <system value="urn:ietf:rfc:3986" />
                            <value value="urn:uuid:7ade729c-a8c6-4b23-8daa-2c78a22ce153" />
                        </valueIdentifier>
                    </extension>
                </extension>
                <identifier>
                    <system value="urn:ietf:rfc:3986" />
                    <value value="urn:uuid:7ade729c-a8c6-4b23-8daa-2c78a22ce153" />
                </identifier>
                <status value="completed" />
                <category>
                    <coding>
                        <system value="http://www.whocc.no/atc" />
                        <code value="N" />
                        <display value="Nervensystem" />
                    </coding>
                </category>
                <medicationReference>
                    <reference value="#medication-1" />
                </medicationReference>
                <subject>
                    <reference value="Patient/4a975fbf-0eb1-4bdb-8cfe-f13c83b27683" />
                </subject>
                <informationSource>
                    <reference value="PractitionerRole/bad91044-768c-4226-9640-66eff28a1670" />
                </informationSource>
                <reasonCode>
                    <text value="pour dormir" />
                </reasonCode>
                <dosage id="#dosage-1">
                    <patientInstruction value="laisser fondre 1 comprimé sous la langue ½ heure avant le coucher 
(si aucune amélioration au bout de 4 jours, reprendre contact avec le médecin)" />
                    <timing>
                        <repeat>
                            <boundsPeriod>
                                <start value="2019-02-12" />
                                <end value="2019-02-15" />
                            </boundsPeriod>
                            <when value="NIGHT" />
                        </repeat>
                    </timing>
                    <route>
                        <coding>
                            <system value="urn:oid:0.4.0.127.0.16.1.1.2.1" />
                            <code value="20053000" />
                            <display value="Oral use" />
                        </coding>
                    </route>
                    <doseAndRate>
                        <doseQuantity>
                            <value value="1" />
                            <unit value="Tablet (unit of presentation)" />
                            <system value="http://snomed.info/sct" />
                            <code value="732936001" />
                        </doseQuantity>
                    </doseAndRate>
                </dosage>
            </MedicationStatement>
        </resource>
    </entry>
    <entry>
        <fullUrl value="https://int.documedis.hcisolutions.ch/CE/mda/2020-01/Observation/dcbda943-620b-45e3-82e3-a0b723a76584" />
        <resource>
            <Observation>
                <id value="dcbda943-620b-45e3-82e3-a0b723a76584" />
                <extension url="http://hcisolutions.ch/ig/analyzer/StructureDefinition/infoinputdocument">
                    <extension url="http://hcisolutions.ch/ig/analyzer/StructureDefinition/inputdocumentsource">
                        <valueString value="PMP" />
                    </extension>
                    <extension url="http://hcisolutions.ch/ig/analyzer/StructureDefinition/inputdocumenttype">
                        <valueCodeableConcept>
                            <coding>
                                <system value="http://loinc.org" />
                                <code value="56445-0" />
                            </coding>
                            <text value="Medication List" />
                        </valueCodeableConcept>
                    </extension>
                    <extension url="http://hcisolutions.ch/ig/analyzer/StructureDefinition/inputdocumentdate">
                        <valueDateTime value="2023-02-16T09:12:55.482+01:00" />
                    </extension>
                    <extension url="http://hcisolutions.ch/ig/analyzer/StructureDefinition/parentdocumentid">
                        <valueIdentifier>
                            <system value="urn:ietf:rfc:3986" />
                            <value value="urn:uuid:63e4ae3d-3a79-476b-bb03-aa23a5e3e7bf" />
                        </valueIdentifier>
                    </extension>
                </extension>
                <extension url="http://fhir.ch/ig/ch-emed/StructureDefinition/ch-emed-ext-pharmaceuticaladvice">
                    <extension url="id">
                        <valueIdentifier>
                            <system value="urn:ietf:rfc:3986" />
                            <value value="urn:uuid:63e4ae3d-3a79-476b-bb03-aa23a5e3e7bf" />
                        </valueIdentifier>
                    </extension>
                    <extension url="externalDocumentId">
                        <valueIdentifier>
                            <system value="urn:ietf:rfc:3986" />
                            <value value="urn:uuid:63e4ae3d-3a79-476b-bb03-aa23a5e3e7bf" />
                        </valueIdentifier>
                    </extension>
                </extension>
                <extension url="http://fhir.ch/ig/ch-emed/StructureDefinition/ch-emed-ext-treatmentplan">
                    <extension url="id">
                        <valueIdentifier>
                            <system value="urn:ietf:rfc:3986" />
                            <value value="urn:uuid:7ade729c-a8c6-4b23-8daa-2c78a22ce153" />
                        </valueIdentifier>
                    </extension>
                    <extension url="externalDocumentId">
                        <valueIdentifier>
                            <system value="urn:ietf:rfc:3986" />
                            <value value="urn:uuid:7ade729c-a8c6-4b23-8daa-2c78a22ce153" />
                        </valueIdentifier>
                    </extension>
                </extension>
                <identifier>
                    <system value="urn:ietf:rfc:3986" />
                    <value value="urn:uuid:1f88431a-80e5-46b3-a928-40bc5a63b08e" />
                </identifier>
                <status value="final" />
                <code>
                    <coding>
                        <system value="urn:oid:1.3.6.1.4.1.19376.1.9.2.1" />
                        <code value="CANCEL" />
                    </coding>
                </code>
                <subject>
                    <reference value="Patient/4a975fbf-0eb1-4bdb-8cfe-f13c83b27683" />
                </subject>
                <effectiveDateTime value="2019-02-15T11:00:00+01:00" />
                <performer>
                    <reference value="PractitionerRole/5190e83b-fa1b-4fc8-b7a4-b7b72b34d28f" />
                </performer>
                <note>
                    <text value="selon téléphone avec le médecin, arrêter le traitement car inefficace" />
                </note>
            </Observation>
        </resource>
    </entry>
    <entry>
        <fullUrl value="https://int.documedis.hcisolutions.ch/CE/mda/2020-01/MedicationStatement/83af0652-683a-43bf-9e9e-968f6df586d3" />
        <resource>
            <MedicationStatement>
                <id value="83af0652-683a-43bf-9e9e-968f6df586d3" />
                <contained>
                    <Medication>
                        <id value="medication-1" />
                        <code>
                            <coding>
                                <system value="urn:oid:2.51.1.1" />
                                <code value="7680471020733" />
                                <display value="Temesta Expidet Schmelztabl 1 mg 20 Stk" />
                            </coding>
                            <text value="TEMESTA Expidet Schmelztabl 1 mg" />
                        </code>
                        <form>
                            <coding>
                                <system value="urn:oid:0.4.0.127.0.16.1.1.2.1" />
                                <code value="10221000" />
                                <display value="Film-coated tablet" />
                            </coding>
                        </form>
                        <amount>
                            <numerator>
                                <value value="20" />
                                <unit value="Piece(s)" />
                                <system value="http://unitsofmeasure.org" />
                                <code value="{Piece}" />
                            </numerator>
                            <denominator>
                                <value value="1" />
                                <unit value="Package" />
                                <system value="http://unitsofmeasure.org" />
                                <code value="{Package}" />
                            </denominator>
                        </amount>
                        <ingredient>
                            <itemCodeableConcept>
                                <coding>
                                    <system value="http://snomed.info/sct" />
                                    <code value="387106007" />
                                    <display value="Lorazepam (substance)" />
                                </coding>
                                <text value="Lorazépam" />
                            </itemCodeableConcept>
                            <strength>
                                <numerator>
                                    <value value="1" />
                                    <unit value="milligram" />
                                    <system value="http://unitsofmeasure.org" />
                                    <code value="mg" />
                                </numerator>
                                <denominator>
                                    <value value="1" />
                                    <unit value="Tablet (unit of presentation)" />
                                    <system value="http://snomed.info/sct" />
                                    <code value="732936001" />
                                </denominator>
                            </strength>
                        </ingredient>
                    </Medication>
                </contained>
                <identifier>
                    <system value="urn:ietf:rfc:3986" />
                    <value value="urn:uuid:83af0652-683a-43bf-9e9e-968f6df586d3" />
                </identifier>
                <status value="unknown" />
                <category>
                    <coding>
                        <system value="http://www.whocc.no/atc" />
                        <code value="N" />
                        <display value="Nervensystem" />
                    </coding>
                </category>
                <medicationReference>
                    <reference value="#medication-1" />
                </medicationReference>
                <subject>
                    <reference value="Patient/4a975fbf-0eb1-4bdb-8cfe-f13c83b27683" />
                </subject>
                <informationSource>
                    <reference value="PractitionerRole/bad91044-768c-4226-9640-66eff28a1670" />
                </informationSource>
                <derivedFrom>
                    <reference value="MedicationStatement/262c7b3e-166d-4b05-9626-d75c67b8a2de" />
                </derivedFrom>
                <derivedFrom>
                    <reference value="Observation/f8b4e4ee-ba4f-4895-9e61-d3f26cbe8947" />
                </derivedFrom>
                <derivedFrom>
                    <reference value="Observation/dcbda943-620b-45e3-82e3-a0b723a76584" />
                </derivedFrom>
                <dosage>
                    <text value="-" />
                </dosage>
            </MedicationStatement>
        </resource>
    </entry>
    <entry>
        <fullUrl value="https://int.documedis.hcisolutions.ch/CE/mda/2020-01/Observation/f8b4e4ee-ba4f-4895-9e61-d3f26cbe8947" />
        <resource>
            <Observation>
                <id value="f8b4e4ee-ba4f-4895-9e61-d3f26cbe8947" />
                <identifier>
                    <system value="urn:ietf:rfc:3986" />
                    <value value="urn:uuid:f8b4e4ee-ba4f-4895-9e61-d3f26cbe8947" />
                </identifier>
                <status value="final" />
                <code>
                    <coding>
                        <system value="urn:oid:1.3.6.1.4.1.19376.1.9.2.1" />
                        <code value="CANCEL" />
                    </coding>
                </code>
                <valueCodeableConcept>
                    <coding>
                        <system value="http://hcisolutions.ch/ig/analyzer/CodeSystem/history-changes" />
                        <code value="stop" />
                    </coding>
                </valueCodeableConcept>
            </Observation>
        </resource>
    </entry>
</Bundle>