<?xml version="1.0" encoding="UTF-8"?>
<Bundle xmlns="http://hl7.org/fhir">
    <id value="PMP2-ConsolidatedMedicationCard"/>
    <identifier>
        <system value="urn:ietf:rfc:3986"/>
        <value value="urn:uuid:fc354a5b-eabd-4275-9ea7-e248375baefd"/>
    </identifier>
    <type value="document"/>
    <timestamp value="2023-02-16T10:48:19.299+00:00"/>
    <entry>
        <fullUrl value="http://test.fhir.ch/r4/Composition/PMP2-Analyzer"/>
        <resource>
            <Composition>
                <id value="PMP2-Analyzer"/>
                <identifier>
                    <system value="urn:ietf:rfc:3986"/>
                    <value value="urn:uuid:fc354a5b-eabd-4275-9ea7-e248375baefd"/>
                </identifier>
                <status value="final"/>
                <type>
                    <coding>
                        <system value="http://snomed.info/sct"/>
                        <code value="721912009"/>
                    </coding>
                </type>
                <subject>
                    <reference value="Patient/MAGMED005"/>
                </subject>
                <date value="2023-02-16T10:48:19.299+00:00"/>
                <author>
                    <reference value="Device/Analyzer"/>
                </author>
                <title value="Medikationsplan"/>
                <section>
                    <entry>
                        <reference value="MedicationStatement/PMP2-HeaderMedStat-Analyzer"/>
                    </entry>
                </section>
            </Composition>
        </resource>
    </entry>
    <!-- Analyzer -->
    <entry>
        <fullUrl value="http://test.fhir.ch/r4/Device/Analyzer"/>
        <resource>
            <Device>
                <id value="Analyzer"/>
                <deviceName>
                    <name value="Documedis Medical Data Analyzer CE"/>
                    <type value="user-friendly-name"/>
                </deviceName>
                <version>
                    <value value="0.0.0.1"/>
                </version>
            </Device>
        </resource>
    </entry>

    <!-- Patient -->
    <entry>
        <fullUrl value="http://test.fhir.ch/r4/Patient/MAGMED005"/>
        <resource>
            <Patient>
                <id value="MAGMED005"/>
                <identifier>
                    <use value="official"/>
                    <type>
                        <coding>
                            <system value="http://terminology.hl7.org/CodeSystem/v2-0203"/>
                            <code value="MR"/>
                        </coding>
                    </type>
                    <system value="urn:oid:2.16.756.5.30.1.191.1.0.2.1"/>
                    <value value="7a4ec59f-a024-4cfb-bc04-3339c53cb9ac"/>
                </identifier>
                <identifier>
                    <use value="secondary"/>
                    <type>
                        <coding>
                            <system value="http://terminology.hl7.org/CodeSystem/v2-0203"/>
                            <code value="MR"/>
                        </coding>
                    </type>
                    <system value="urn:oid:2.16.756.5.30.1.191.4.1.10.1.3"/>
                    <value value="L53672539"/>
                </identifier>
                <identifier>
                    <use value="secondary"/>
                    <type>
                        <coding>
                            <system value="http://terminology.hl7.org/CodeSystem/v2-0203"/>
                            <code value="MR"/>
                        </coding>
                    </type>
                    <system value="urn:oid:2.16.756.5.30.1.196.3.2.1"/>
                    <value value="MAGMED005"/>
                </identifier>
                <identifier>
                    <use value="secondary"/>
                    <type>
                        <coding>
                            <system value="http://terminology.hl7.org/CodeSystem/v2-0203"/>
                            <code value="MR"/>
                        </coding>
                    </type>
                    <system value="urn:oid:2.16.756.5.30.1.196.2.2.1"/>
                    <value value="3486389"/>
                </identifier>
                <identifier>
                    <use value="secondary"/>
                    <type>
                        <coding>
                            <system value="http://terminology.hl7.org/CodeSystem/v2-0203"/>
                            <code value="MR"/>
                        </coding>
                    </type>
                    <system value="urn:oid:2.16.756.5.30.1.196.3.2.1"/>
                    <value value="3503409"/>
                </identifier>
                <identifier>
                    <use value="secondary"/>
                    <type>
                        <coding>
                            <system value="http://terminology.hl7.org/CodeSystem/v2-0203"/>
                            <code value="MR"/>
                        </coding>
                    </type>
                    <system value="urn:oid:2.16.756.5.30.1.196.2.2.1"/>
                    <value value="3505915"/>
                </identifier>
                <identifier>
                    <use value="secondary"/>
                    <type>
                        <coding>
                            <system value="http://terminology.hl7.org/CodeSystem/v2-0203"/>
                            <code value="MR"/>
                        </coding>
                    </type>
                    <system value="urn:oid:2.999.756.42.2"/>
                    <value value="12345678"/>
                </identifier>
                <identifier>
                    <use value="secondary"/>
                    <type>
                        <coding>
                            <system value="http://terminology.hl7.org/CodeSystem/v2-0203"/>
                            <code value="MR"/>
                        </coding>
                    </type>
                    <system value="urn:oid:2.16.756.5.30.1.128.4.1.4.2.3.2.1.1.1"/>
                    <value value="99146298"/>
                </identifier>
                <identifier>
                    <use value="secondary"/>
                    <type>
                        <coding>
                            <system value="http://terminology.hl7.org/CodeSystem/v2-0203"/>
                            <code value="MR"/>
                        </coding>
                    </type>
                    <system value="urn:oid:2.16.756.5.30.1.196.3.2.1"/>
                    <value value="3475203"/>
                </identifier>
                <identifier>
                    <use value="secondary"/>
                    <type>
                        <coding>
                            <system value="http://terminology.hl7.org/CodeSystem/v2-0203"/>
                            <code value="MR"/>
                        </coding>
                    </type>
                    <system value="urn:oid:2.16.756.5.30.1.191.1.0.12.3.101"/>
                    <value value="02fc1dd1-fc13-4ca0-874c-b8372b7e6cfc"/>
                </identifier>
                <active value="true"/>
                <name>
                    <family value="Behluli-Qazimi"/>
                    <given value="Leandra Corina"/>
                </name>
                <gender value="female"/>
                <birthDate value="2002-12-21"/>
            </Patient>
        </resource>
    </entry>

    <!-- PractitionerRole 1/2 (MedStat) -->
    <entry>
        <fullUrl value="http://test.fhir.ch/r4/PractitionerRole/practitioner-role-1"/>
        <resource>
            <PractitionerRole>
                <id value="practitioner-role-1"/>
                <practitioner>
                    <reference value="Practitioner/practitioner-1"/>
                </practitioner>
                <organization>
                    <reference value="Organization/organization-1"/>
                </organization>
            </PractitionerRole>
        </resource>
    </entry>
    <entry>
        <fullUrl value="http://test.fhir.ch/r4/Practitioner/practitioner-1"/>
        <resource>
            <Practitioner>
                <id value="practitioner-1"/>
                <identifier>
                    <system value="urn:oid:2.51.1.3"/>
                    <value value="7601000201041"/>
                </identifier>
                <name>
                    <family value="Rochat"/>
                    <given value="Dr"/>
                    <prefix value="Dr. med."/>
                </name>
            </Practitioner>
        </resource>
    </entry>
    <entry>
        <fullUrl value="http://test.fhir.ch/r4/Organization/organization-1"/>
        <resource>
            <Organization>
                <id value="organization-1"/>
                <identifier>
                    <system value="urn:oid:2.51.1.3"/>
                    <value value="7601000201041"/>
                </identifier>
                <name value="Médecin de famille"/>
                <address>
                    <line value="Krankenstrasse 2"/>
                    <city value="Zürich"/>
                    <postalCode value="8005"/>
                    <country value="CH"/>
                </address>
            </Organization>
        </resource>
    </entry>

        <!-- PractitionerRole 3/4 (Obs) -->
    <entry>
        <fullUrl value="http://test.fhir.ch/r4/PractitionerRole/practitioner-role-3"/>
        <resource>
            <PractitionerRole>
                <id value="practitioner-role-3"/>
                <practitioner>
                    <reference value="Practitioner/practitioner-3"/>
                </practitioner>
                <organization>
                    <reference value="Organization/organization-3"/>
                </organization>
            </PractitionerRole>
        </resource>
    </entry>
    <entry>
        <fullUrl value="http://test.fhir.ch/r4/Practitioner/practitioner-3"/>
        <resource>
            <Practitioner>
                <id value="practitioner-3"/>
                <identifier>
                    <system value="urn:oid:2.51.1.3"/>
                    <value value="7601000876546"/>
                </identifier>
                <name>
                    <family value="Pharm"/>
                    <given value="Pharmacien"/>
                </name>
            </Practitioner>
        </resource>
    </entry>
    <entry>
        <fullUrl value="http://test.fhir.ch/r4/Organization/organization-3"/>
        <resource>
            <Organization>
                <id value="organization-3"/>
                <identifier>
                    <system value="urn:oid:2.51.1.3"/>
                    <value value="7601000876546"/>
                </identifier>
                <name value="Pharmacie"/>
                <address>
                    <line value="Apothekerstrasse 22"/>
                    <city value="Zürich"/>
                    <postalCode value="8005"/>
                    <country value="CH"/>
                </address>
            </Organization>
        </resource>
    </entry>

    <!-- MedicationStatement -->
    <entry>
        <fullUrl value="http://test.fhir.ch/r4/MedicationStatement/PMP2-MedStat-Analyzer"/>
        <resource>
            <MedicationStatement>
                <id value="PMP2-MedStat-Analyzer"/>
                <contained>
                    <Medication>
                        <id value="medication-1"/>
                        <code>
                            <coding>
                                <system value="urn:oid:2.51.1.1"/>
                                <code value="7680471020733"/>
                                <display value="Temesta Expidet Schmelztabl 1 mg 20 Stk"/>
                            </coding>
                            <text value="TEMESTA Expidet Schmelztabl 1 mg"/>
                        </code>
                        <form>
                            <coding>
                                <system value="urn:oid:0.4.0.127.0.16.1.1.2.1"/>
                                <code value="10221000"/>
                                <display value="Film-coated tablet"/>
                            </coding>
                        </form>
                        <amount>
                            <numerator>
                                <value value="20"/>
                                <unit value="Piece(s)"/>
                                <system value="http://unitsofmeasure.org"/>
                                <code value="{Piece}"/>
                            </numerator>
                            <denominator>
                                <value value="1"/>
                                <unit value="Package"/>
                                <system value="http://unitsofmeasure.org"/>
                                <code value="{Package}"/>
                            </denominator>
                        </amount>
                        <ingredient>
                            <itemCodeableConcept>
                                <coding>
                                    <system value="http://snomed.info/sct"/>
                                    <code value="387106007"/>
                                    <display value="Lorazepam (substance)"/>
                                </coding>
                                <text value="Lorazépam"/>
                            </itemCodeableConcept>
                            <strength>
                                <numerator>
                                    <value value="1"/>
                                    <unit value="milligram"/>
                                    <system value="http://unitsofmeasure.org"/>
                                    <code value="mg"/>
                                </numerator>
                                <denominator>
                                    <value value="1"/>
                                    <unit value="Tablet (unit of presentation)"/>
                                    <system value="http://snomed.info/sct"/>
                                    <code value="732936001"/>
                                </denominator>
                            </strength>
                        </ingredient>
                    </Medication>
                </contained>
                <extension url="http://hcisolutions.ch/ig/analyzer/StructureDefinition/infoinputdocument">
                    <extension url="http://hcisolutions.ch/ig/analyzer/StructureDefinition/inputdocumentsource">
                        <valueString value="PMP"/>
                    </extension>
                    <extension url="http://hcisolutions.ch/ig/analyzer/StructureDefinition/inputdocumenttype">
                        <valueCodeableConcept>
                            <coding>
                                <system value="http://loinc.org"/>
                                <code value="56445-0"/>
                            </coding>
                            <text value="Medication List"/>
                        </valueCodeableConcept>
                    </extension>
                    <extension url="http://hcisolutions.ch/ig/analyzer/StructureDefinition/inputdocumentdate">
                        <valueDateTime value="2023-02-16T09:12:55.482+01:00"/>
                    </extension>
                    <extension url="http://hcisolutions.ch/ig/analyzer/StructureDefinition/parentdocumentid">
                        <valueIdentifier>
                            <system value="urn:ietf:rfc:3986"/>
                            <value value="urn:uuid:7ade729c-a8c6-4b23-8daa-2c78a22ce153"/>
                        </valueIdentifier>
                    </extension>
                </extension>
                <extension url="http://fhir.ch/ig/ch-emed/StructureDefinition/ch-emed-ext-treatmentplan">
                    <extension url="id">
                        <valueIdentifier>
                            <system value="urn:ietf:rfc:3986"/>
                            <value value="urn:uuid:7ade729c-a8c6-4b23-8daa-2c78a22ce153"/>
                        </valueIdentifier>
                    </extension>
                    <extension url="externalDocumentId">
                        <valueIdentifier>
                            <system value="urn:ietf:rfc:3986"/>
                            <value value="urn:uuid:7ade729c-a8c6-4b23-8daa-2c78a22ce153"/>
                        </valueIdentifier>
                    </extension>
                </extension>
                <extension url="http://fhir.ch/ig/ch-core/StructureDefinition/ch-ext-author">
                    <valueReference>
                        <reference value="PractitionerRole/practitioner-role-1"/>
                    </valueReference>
                </extension>
                <identifier>
                    <system value="urn:ietf:rfc:3986"/>
                    <value value="urn:uuid:7ade729c-a8c6-4b23-8daa-2c78a22ce153"/>
                </identifier>
                <status value="completed"/>
                <category>
                    <coding>
                        <system value="http://www.whocc.no/atc"/>
                        <code value="N"/>
                        <display value="Nervensystem"/>
                    </coding>
                </category>
                <medicationReference>
                    <reference value="#medication-1"/>
                </medicationReference>
                <subject>
                    <reference value="Patient/MAGMED005"/>
                </subject>
                <informationSource>
                    <reference value="PractitionerRole/practitioner-role-1"/>
                </informationSource>
                <reasonCode>
                    <text value="pour dormir"/>
                </reasonCode>
                <dosage id="#dosage-1">
                    <patientInstruction value="laisser fondre 1 comprimé sous la langue ½ heure avant le coucher &#xA;(si aucune amélioration au bout de 4 jours, reprendre contact avec le médecin)"/>
                    <timing>
                        <repeat>
                            <boundsPeriod>
                                <start value="2019-02-12"/>
                                <end value="2019-02-15"/>
                            </boundsPeriod>
                            <when value="NIGHT"/>
                        </repeat>
                    </timing>
                    <route>
                        <coding>
                            <system value="urn:oid:0.4.0.127.0.16.1.1.2.1"/>
                            <code value="20053000"/>
                            <display value="Oral use"/>
                        </coding>
                    </route>
                    <doseAndRate>
                        <doseQuantity>
                            <value value="1"/>
                            <unit value="Tablet (unit of presentation)"/>
                            <system value="http://snomed.info/sct"/>
                            <code value="732936001"/>
                        </doseQuantity>
                    </doseAndRate>
                </dosage>
            </MedicationStatement>
        </resource>
    </entry>



    <!-- Observation -->
    <entry>
        <fullUrl value="http://test.fhir.ch/r4/Observation/PMP2-Obs-Analyzer"/>
        <resource>
            <Observation>
                <id value="PMP2-Obs-Analyzer"/>
                <extension url="http://hcisolutions.ch/ig/analyzer/StructureDefinition/infoinputdocument">
                    <extension url="http://hcisolutions.ch/ig/analyzer/StructureDefinition/inputdocumentsource">
                        <valueString value="PMP"/>
                    </extension>
                    <extension url="http://hcisolutions.ch/ig/analyzer/StructureDefinition/inputdocumenttype">
                        <valueCodeableConcept>
                            <coding>
                                <system value="http://loinc.org"/>
                                <code value="56445-0"/>
                            </coding>
                            <text value="Medication List"/>
                        </valueCodeableConcept>
                    </extension>
                    <extension url="http://hcisolutions.ch/ig/analyzer/StructureDefinition/inputdocumentdate">
                        <valueDateTime value="2023-02-16T09:12:55.482+01:00"/>
                    </extension>
                    <extension url="http://hcisolutions.ch/ig/analyzer/StructureDefinition/parentdocumentid">
                        <valueIdentifier>
                            <system value="urn:ietf:rfc:3986"/>
                            <value value="urn:uuid:63e4ae3d-3a79-476b-bb03-aa23a5e3e7bf"/>
                        </valueIdentifier>
                    </extension>
                </extension>
                <extension url="http://fhir.ch/ig/ch-emed/StructureDefinition/ch-emed-ext-pharmaceuticaladvice">
                    <extension url="id">
                        <valueIdentifier>
                            <system value="urn:ietf:rfc:3986"/>
                            <value value="urn:uuid:63e4ae3d-3a79-476b-bb03-aa23a5e3e7bf"/>
                        </valueIdentifier>
                    </extension>
                    <extension url="externalDocumentId">
                        <valueIdentifier>
                            <system value="urn:ietf:rfc:3986"/>
                            <value value="urn:uuid:63e4ae3d-3a79-476b-bb03-aa23a5e3e7bf"/>
                        </valueIdentifier>
                    </extension>
                </extension>
                <extension url="http://fhir.ch/ig/ch-emed/StructureDefinition/ch-emed-ext-treatmentplan">
                    <extension url="id">
                        <valueIdentifier>
                            <system value="urn:ietf:rfc:3986"/>
                            <value value="urn:uuid:7ade729c-a8c6-4b23-8daa-2c78a22ce153"/>
                        </valueIdentifier>
                    </extension>
                    <extension url="externalDocumentId">
                        <valueIdentifier>
                            <system value="urn:ietf:rfc:3986"/>
                            <value value="urn:uuid:7ade729c-a8c6-4b23-8daa-2c78a22ce153"/>
                        </valueIdentifier>
                    </extension>
                </extension>
                <extension url="http://fhir.ch/ig/ch-core/StructureDefinition/ch-ext-author">
                    <valueReference>
                        <reference value="PractitionerRole/practitioner-role-3"/>
                    </valueReference>
                </extension>
                <identifier>
                    <system value="urn:ietf:rfc:3986"/>
                    <value value="urn:uuid:1f88431a-80e5-46b3-a928-40bc5a63b08e"/>
                </identifier>
                <status value="final"/>
                <code>
                    <coding>
                        <system value="urn:oid:1.3.6.1.4.1.19376.1.9.2.1"/>
                        <code value="CANCEL"/>
                    </coding>
                </code>
                <subject>
                    <reference value="Patient/MAGMED005"/>
                </subject>
                <effectiveDateTime value="2019-02-15T11:00:00+01:00"/>
                <performer>
                    <reference value="PractitionerRole/practitioner-role-3"/>
                </performer>
                <note>
                    <text value="selon téléphone avec le médecin, arrêter le traitement car inefficace"/>
                </note>
            </Observation>
        </resource>
    </entry>

    <!-- Header MedicationStatement -->
    <entry>
        <fullUrl value="http://test.fhir.ch/r4/MedicationStatement/PMP2-HeaderMedStat-Analyzer"/>
        <resource>
            <MedicationStatement>
                <id value="PMP2-HeaderMedStat-Analyzer"/>
                <contained>
                    <Medication>
                        <id value="medication-1"/>
                        <code>
                            <coding>
                                <system value="urn:oid:2.51.1.1"/>
                                <code value="7680471020733"/>
                                <display value="Temesta Expidet Schmelztabl 1 mg 20 Stk"/>
                            </coding>
                            <text value="TEMESTA Expidet Schmelztabl 1 mg"/>
                        </code>
                        <form>
                            <coding>
                                <system value="urn:oid:0.4.0.127.0.16.1.1.2.1"/>
                                <code value="10221000"/>
                                <display value="Film-coated tablet"/>
                            </coding>
                        </form>
                        <amount>
                            <numerator>
                                <value value="20"/>
                                <unit value="Piece(s)"/>
                                <system value="http://unitsofmeasure.org"/>
                                <code value="{Piece}"/>
                            </numerator>
                            <denominator>
                                <value value="1"/>
                                <unit value="Package"/>
                                <system value="http://unitsofmeasure.org"/>
                                <code value="{Package}"/>
                            </denominator>
                        </amount>
                        <ingredient>
                            <itemCodeableConcept>
                                <coding>
                                    <system value="http://snomed.info/sct"/>
                                    <code value="387106007"/>
                                    <display value="Lorazepam (substance)"/>
                                </coding>
                                <text value="Lorazépam"/>
                            </itemCodeableConcept>
                            <strength>
                                <numerator>
                                    <value value="1"/>
                                    <unit value="milligram"/>
                                    <system value="http://unitsofmeasure.org"/>
                                    <code value="mg"/>
                                </numerator>
                                <denominator>
                                    <value value="1"/>
                                    <unit value="Tablet (unit of presentation)"/>
                                    <system value="http://snomed.info/sct"/>
                                    <code value="732936001"/>
                                </denominator>
                            </strength>
                        </ingredient>
                    </Medication>
                </contained>
                <identifier>
                    <system value="urn:ietf:rfc:3986"/>
                    <value value="urn:uuid:0670ff7b-b4c3-42b8-a528-1ac6cb39b563"/>
                </identifier>
                <status value="unknown"/>
                <category>
                    <coding>
                        <system value="http://www.whocc.no/atc"/>
                        <code value="N"/>
                        <display value="Nervensystem"/>
                    </coding>
                </category>
                <medicationReference>
                    <reference value="#medication-1"/>
                </medicationReference>
                <subject>
                    <reference value="Patient/MAGMED005"/>
                </subject>
                <informationSource>
                    <reference value="PractitionerRole/practitioner-role-3"/>
                </informationSource>
                <derivedFrom>
                    <reference value="MedicationStatement/PMP2-MedStat-Analyzer" />
                </derivedFrom>
                <derivedFrom>
                    <reference value="Observation/PMP2-Obs-History" />
                </derivedFrom>
                <derivedFrom>
                    <reference value="Observation/PMP2-Obs-Analyzer" />
                </derivedFrom>
                <dosage>
                    <text value="-"/>
                </dosage>
            </MedicationStatement>
        </resource>
    </entry>

    <entry>
        <fullUrl value="http://test.fhir.ch/r4/Observation/PMP2-Obs-History"/>
        <resource>
            <Observation>
                <id value="PMP2-Obs-History"/>
                <identifier>
                    <system value="urn:ietf:rfc:3986"/>
                    <value value="urn:uuid:8df31538-0515-4493-a744-deb2dc25bad7"/>
                </identifier>
                <status value="final"/>
                <code>
                    <coding>
                        <system value="urn:oid:1.3.6.1.4.1.19376.1.9.2.1"/>
                        <code value="CANCEL"/>
                    </coding>
                </code>
                <valueCodeableConcept>
                    <coding>
                        <system value="http://hcisolutions.ch/ig/analyzer/CodeSystem/history-changes"/>
                        <code value="stop"/>
                    </coding>
                </valueCodeableConcept>
            </Observation>
        </resource>
    </entry>
</Bundle>