<?xml version="1.0" encoding="UTF-8"?>

<Bundle xmlns="http://hl7.org/fhir">
    <id value="PMP3-ConsolidatedMedicationCard"/>
    <identifier>
        <system value="urn:ietf:rfc:3986"/>
        <value value="urn:uuid:49ecab84-43e5-4d9d-9ab7-95010744cd51"/>
    </identifier>
    <type value="document"/>
    <timestamp value="2022-08-17T12:00:00+00:00"/>
    <entry>
        <fullUrl value="http://test.fhir.ch/r4/Composition/PMP3-Analyzer"/>
        <resource>
            <Composition>
                <id value="PMP3-Analyzer"/>
                <identifier>
                    <system value="urn:ietf:rfc:3986"/>
                    <value value="urn:uuid:4db23540-b69e-4f8e-ba79-f085b1c2aabb"/>
                </identifier>
                <status value="final"/>
                <type>
                    <coding>
                        <system value="http://snomed.info/sct"/>
                        <code value="721912009"/>
                        <display value="Medication summary document (record artifact)"/>
                    </coding>
                </type>
                <subject>
                    <reference value="Patient/TrongSangNeffWingeier"/>
                </subject>
                <date value="2022-08-17T12:00:00+00:00"/>
                <author>
                    <reference value="Device/Analyzer"/>
                </author>
                <title value="Medikationsplan"/>
                <section>
                    <entry>
                        <reference value="MedicationStatement/Header1-MedStat-Analyzer"/>
                    </entry>
                </section>
            </Composition>
        </resource>
    </entry>

    <!-- Composition.author -->
    <entry>
        <fullUrl value="http://test.fhir.ch/r4/Device/Analyzer"/>
        <resource>
            <Device>
                <id value="Analyzer"/>
                <deviceName>
                    <name value="Documedis Medical Data Analyzer CE"/>
                    <type value="user-friendly-name"/>
                </deviceName>
                <version>
                    <value value="1.0.0.0"/>
                </version>
            </Device>
        </resource>
    </entry>

    <!-- Composition.subject -->
    <entry>
        <fullUrl value="http://test.fhir.ch/r4/Patient/TrongSangNeffWingeier"/>
        <resource>
            <Patient>
                <id value="TrongSangNeffWingeier"/>
                <identifier>
                    <type>
                        <coding>
                            <system value="http://terminology.hl7.org/CodeSystem/v2-0203"/>
                            <code value="MR"/>
                        </coding>
                    </type>
                    <system value="urn:oid:2.16.756.5.30.1.191.1.0.2.1"/>
                    <value value="e7963774-9098-445f-9cab-5d52234b52c3"/>
                </identifier>
                <name>
                    <family value="NEFF-WINGEIER"/>
                    <given value="Trong Sang"/>
                </name>
                <gender value="male"/>
                <birthDate value="1987-10-08"/>
            </Patient>
        </resource>
    </entry>

    <!-- Medical decision 1. document -->
    <entry>
        <fullUrl value="http://test.fhir.ch/r4/PractitionerRole/Hausarzt"/>
        <resource>
            <PractitionerRole>
                <id value="Hausarzt"/>
                <practitioner>
                    <reference value="Practitioner/DrRochat"/>
                </practitioner>
            </PractitionerRole>
        </resource>
    </entry>
    <entry>
        <fullUrl value="http://test.fhir.ch/r4/Practitioner/DrRochat"/>
        <resource>
            <Practitioner>
                <id value="DrRochat"/>
                <identifier>
                    <system value="urn:oid:2.51.1.3"/>
                    <value value="7601000201041"/>
                </identifier>
                <name>
                    <family value="Rochat"/>
                    <given value="Dr"/>
                </name>
                <address>
                    <city value="Zürich"/>
                    <postalCode value="8005"/>
                    <country value="CH"/>
                </address>
            </Practitioner>
        </resource>
    </entry>

    <!-- Medical decision 2. document -->
    <entry>
        <fullUrl value="http://test.fhir.ch/r4/PractitionerRole/Pharmacy"/>
        <resource>
            <PractitionerRole>
                <id value="Pharmacy"/>
                <practitioner>
                    <reference value="Practitioner/PharmacienPharm"/>
                </practitioner>
            </PractitionerRole>
        </resource>
    </entry>
    <entry>
        <fullUrl value="http://test.fhir.ch/r4/Practitioner/PharmacienPharm"/>
        <resource>
            <Practitioner>
                <id value="PharmacienPharm"/>
                <identifier>
                    <system value="urn:oid:2.51.1.3"/>
                    <value value="7601000876546"/>
                </identifier>
                <name>
                    <family value="Pharm"/>
                    <given value="Pharmacien"/>
                </name>
                <address>
                    <city value="Zürich"/>
                    <postalCode value="8005"/>
                    <country value="CH"/>
                </address>
            </Practitioner>
        </resource>
    </entry>

    <!-- MedicationStatement/Header1-MedStat-Analyzer -->
    <entry>
        <fullUrl value="http://test.fhir.ch/r4/MedicationStatement/Header1-MedStat-Analyzer"/>
        <resource>
            <MedicationStatement>
                <id value="Header1-MedStat-Analyzer"/>
                <contained>
                    <Medication>
                        <id value="med"/>
                        <code>
                            <coding>
                                <system value="urn:oid:2.51.1.1"/>
                                <code value="7680563180079"/>
                                <display value="DAFALGAN cpr pell 1 g blister 40 pce"/>
                            </coding>
                            <text value="DAFALGAN cpr pell 1 g blister 40 pce"/>
                        </code>
                        <form>
                            <coding>
                                <system value="urn:oid:0.4.0.127.0.16.1.1.2.1"/>
                                <code value="10221000"/>
                                <display value="Film-coated tablet"/>
                            </coding>
                        </form>
                        <amount>
                            <numerator>
                                <value value="40"/>
                                <unit value="Piece"/>
                                <system value="http://unitsofmeasure.org"/>
                                <code value="{Piece}"/>
                            </numerator>
                            <denominator>
                                <value value="1"/>
                                <unit value="Package"/>
                                <system value="http://unitsofmeasure.org"/>
                                <code value="{Package}"/>
                            </denominator>
                        </amount>
                        <ingredient>
                            <itemCodeableConcept>
                                <coding>
                                    <system value="http://snomed.info/sct"/>
                                    <code value="387517004"/>
                                    <display value="Paracetamol (substance)"/>
                                </coding>
                                <text value="Paracétamol"/>
                            </itemCodeableConcept>
                            <strength>
                                <numerator>
                                    <value value="1"/>
                                    <unit value="gram"/>
                                    <system value="http://unitsofmeasure.org"/>
                                    <code value="g"/>
                                </numerator>
                                <denominator>
                                    <value value="1"/>
                                    <unit value="Tablet (unit of presentation)"/>
                                    <system value="http://snomed.info/sct"/>
                                    <code value="732936001"/>
                                </denominator>
                            </strength>
                        </ingredient>
                    </Medication>
                </contained>
                <identifier>
                    <system value="urn:ietf:rfc:3986"/>
                    <value value="urn:uuid:c868eb92-f676-4ca2-b051-57f970def02b"/>
                </identifier>
                <status value="unknown"/>
                <category>
                    <coding>
                        <system value="http://www.whocc.no/atc"/>
                        <code value="N"/>
                        <display value="Nervensystem"/>
                    </coding>
                </category>
                <medicationReference>
                    <reference value="#med"/>
                </medicationReference>
                <subject>
                    <reference value="Patient/TrongSangNeffWingeier"/>
                </subject>
                <informationSource>
                    <reference value="PractitionerRole/Pharmacy"/>
                </informationSource>
                <!-- History -->
                <derivedFrom>
                    <reference value="MedicationStatement/1-MedStat-MTP"/>
                </derivedFrom>
                <derivedFrom>
                    <reference value="Observation/1-Obs-History"/>
                </derivedFrom>
                <derivedFrom>
                    <reference value="Observation/1-Obs-COMMENT"/>
                </derivedFrom>
                <dosage>
                    <timing>
                        <repeat>
                            <when value="MORN"/>
                            <when value="NOON"/>
                            <when value="EVE"/>
                        </repeat>
                    </timing>
                    <asNeededBoolean value="true"/>
                    <route>
                        <coding>
                            <system value="urn:oid:0.4.0.127.0.16.1.1.2.1"/>
                            <code value="20053000"/>
                            <display value="Oral use"/>
                        </coding>
                    </route>
                    <doseAndRate>
                        <doseQuantity>
                            <value value="1"/>
                            <unit value="Tablet (unit of presentation)"/>
                            <system value="http://snomed.info/sct"/>
                            <code value="732936001"/>
                        </doseQuantity>
                    </doseAndRate>
                </dosage>
            </MedicationStatement>
        </resource>
    </entry>

    <!-- derivedFrom: MedicationStatement/1-MedStat-MTP -->
    <entry>
        <fullUrl value="http://test.fhir.ch/r4/MedicationStatement/1-MedStat-MTP"/>
        <resource>
            <MedicationStatement>
                <id value="1-MedStat-MTP"/>
                <contained>
                    <Medication>
                        <id value="med"/>
                        <code>
                            <coding>
                                <system value="urn:oid:2.51.1.1"/>
                                <code value="7680563180079"/>
                                <display value="DAFALGAN cpr pell 1 g blister 40 pce"/>
                            </coding>
                            <text value="DAFALGAN cpr pell 1 g blister 40 pce"/>
                        </code>
                        <form>
                            <coding>
                                <system value="urn:oid:0.4.0.127.0.16.1.1.2.1"/>
                                <code value="10221000"/>
                                <display value="Film-coated tablet"/>
                            </coding>
                        </form>
                        <amount>
                            <numerator>
                                <value value="40"/>
                                <unit value="Piece"/>
                                <system value="http://unitsofmeasure.org"/>
                                <code value="{Piece}"/>
                            </numerator>
                            <denominator>
                                <value value="1"/>
                                <unit value="Package"/>
                                <system value="http://unitsofmeasure.org"/>
                                <code value="{Package}"/>
                            </denominator>
                        </amount>
                        <ingredient>
                            <itemCodeableConcept>
                                <coding>
                                    <system value="http://snomed.info/sct"/>
                                    <code value="387517004"/>
                                    <display value="Paracetamol (substance)"/>
                                </coding>
                                <text value="Paracétamol"/>
                            </itemCodeableConcept>
                            <strength>
                                <numerator>
                                    <value value="1"/>
                                    <unit value="gram"/>
                                    <system value="http://unitsofmeasure.org"/>
                                    <code value="g"/>
                                </numerator>
                                <denominator>
                                    <value value="1"/>
                                    <unit value="Tablet (unit of presentation)"/>
                                    <system value="http://snomed.info/sct"/>
                                    <code value="732936001"/>
                                </denominator>
                            </strength>
                        </ingredient>
                    </Medication>
                </contained>
                <extension url="http://hcisolutions.ch/ig/analyzer/StructureDefinition/infoinputdocument">
                    <extension url="http://hcisolutions.ch/ig/analyzer/StructureDefinition/inputdocumentsource">
                        <valueString value="PMP"/>
                    </extension>
                    <extension url="http://hcisolutions.ch/ig/analyzer/StructureDefinition/inputdocumenttype">
                        <valueCodeableConcept>
                            <coding>
                                <system value="http://loinc.org"/>
                                <code value="56445-0"/>
                                <display value="Medication summary"/>
                            </coding>
                            <text value="Medication List"/>
                        </valueCodeableConcept>
                    </extension>
                    <extension url="http://hcisolutions.ch/ig/analyzer/StructureDefinition/inputdocumentdate">
                        <valueDateTime value="2022-08-17T11:50:10+00:00"/>
                    </extension>
                    <extension url="http://hcisolutions.ch/ig/analyzer/StructureDefinition/inputdocumentid">
                        <valueIdentifier>
                            <system value="urn:ietf:rfc:3986"/>
                            <value value="urn:uuid:00c70ec7-9525-4e31-b2ad-c9b4db0f922f"/>
                        </valueIdentifier>
                    </extension>
                </extension>
                <extension url="http://fhir.ch/ig/ch-emed/StructureDefinition/ch-emed-ext-treatmentplan">
                    <extension url="id">
                        <valueIdentifier>
                            <system value="urn:ietf:rfc:3986"/>
                            <value value="urn:uuid:ce620825-baf3-4c6c-813f-4c5ad9a85a55"/>
                        </valueIdentifier>
                    </extension>
                    <extension url="externalDocumentId">
                        <valueIdentifier>
                            <system value="urn:ietf:rfc:3986"/>
                            <value value="urn:uuid:00c70ec7-9525-4e31-b2ad-c9b4db0f922f"/>
                        </valueIdentifier>
                    </extension>
                </extension>
                <identifier>
                    <system value="urn:ietf:rfc:3986"/>
                    <value value="urn:uuid:ce620825-baf3-4c6c-813f-4c5ad9a85a55"/>
                </identifier>
                <status value="completed"/>
                <category>
                    <coding>
                        <system value="http://www.whocc.no/atc"/>
                        <code value="N"/>
                        <display value="Nervensystem"/>
                    </coding>
                </category>
                <medicationReference>
                    <reference value="#med"/>
                </medicationReference>
                <subject>
                    <reference value="Patient/TrongSangNeffWingeier"/>
                </subject>
                <informationSource>
                    <reference value="PractitionerRole/Hausarzt"/>
                </informationSource>
                <reasonCode>
                    <text value="douleurs"/>
                </reasonCode>
                <dosage>
                    <timing>
                        <repeat>
                            <when value="MORN"/>
                            <when value="NOON"/>
                            <when value="EVE"/>
                        </repeat>
                    </timing>
                    <asNeededBoolean value="true"/>
                    <route>
                        <coding>
                            <system value="urn:oid:0.4.0.127.0.16.1.1.2.1"/>
                            <code value="20053000"/>
                            <display value="Oral use"/>
                        </coding>
                    </route>
                    <doseAndRate>
                        <doseQuantity>
                            <value value="1"/>
                            <unit value="Tablet (unit of presentation)"/>
                            <system value="http://snomed.info/sct"/>
                            <code value="732936001"/>
                        </doseQuantity>
                    </doseAndRate>
                </dosage>
            </MedicationStatement>
        </resource>
    </entry>

    <!-- derivedFrom: Observation/1-Obs-History -->
    <entry>
        <fullUrl value="http://test.fhir.ch/r4/Observation/1-Obs-History"/>
        <resource>
            <Observation>
                <id value="1-Obs-History"/>
                <identifier>
                    <system value="urn:ietf:rfc:3986"/>
                    <value value="urn:uuid:9508f0e9-d2da-46ef-8fdb-642bffd66383"/>
                </identifier>
                <status value="final"/>
                <code>
                    <coding>
                        <system value="urn:oid:1.3.6.1.4.1.19376.1.9.2.1"/>
                        <code value="COMMENT"/>
                    </coding>
                </code>
                <valueCodeableConcept>
                    <coding>
                        <system value="http://hcisolutions.ch/ig/analyzer/CodeSystem/history-changes"/>
                        <code value="comment"/>
                    </coding>
                </valueCodeableConcept>
            </Observation>
        </resource>
    </entry>

    <!-- derivedFrom: Observation/1-Obs-COMMENT -->
    <entry>
        <fullUrl value="http://test.fhir.ch/r4/Observation/1-Obs-COMMENT"/>
        <resource>
            <Observation>
                <id value="1-Obs-COMMENT"/>
                <extension url="http://hcisolutions.ch/ig/analyzer/StructureDefinition/infoinputdocument">
                    <extension url="http://hcisolutions.ch/ig/analyzer/StructureDefinition/inputdocumentsource">
                        <valueString value="PMP"/>
                    </extension>
                    <extension url="http://hcisolutions.ch/ig/analyzer/StructureDefinition/inputdocumenttype">
                        <valueCodeableConcept>
                            <coding>
                                <system value="http://loinc.org"/>
                                <code value="56445-0"/>
                                <display value="Medication summary"/>
                            </coding>
                            <text value="Medication List"/>
                        </valueCodeableConcept>
                    </extension>
                    <extension url="http://hcisolutions.ch/ig/analyzer/StructureDefinition/inputdocumentdate">
                        <valueDateTime value="2022-08-17T11:50:10+00:00"/>
                    </extension>
                    <extension url="http://hcisolutions.ch/ig/analyzer/StructureDefinition/inputdocumentid">
                        <valueIdentifier>
                            <system value="urn:ietf:rfc:3986"/>
                            <value value="urn:uuid:e2d4c1a8-2fc0-4636-95a6-c06d19c505cb"/>
                        </valueIdentifier>
                    </extension>
                </extension>
                <extension url="http://fhir.ch/ig/ch-emed/StructureDefinition/ch-emed-ext-treatmentplan">
                    <extension url="id">
                        <valueIdentifier>
                            <system value="urn:ietf:rfc:3986"/>
                            <value value="urn:uuid:ce620825-baf3-4c6c-813f-4c5ad9a85a55"/>
                        </valueIdentifier>
                    </extension>
                    <extension url="externalDocumentId">
                        <valueIdentifier>
                            <system value="urn:ietf:rfc:3986"/>
                            <value value="urn:uuid:4ea3bf0a-d6d6-41a1-bb23-85670cfaaf9f"/>
                        </valueIdentifier>
                    </extension>
                </extension>
                <extension url="http://fhir.ch/ig/ch-emed/StructureDefinition/ch-emed-ext-pharmaceuticaladvice">
                    <extension url="id">
                        <valueIdentifier>
                            <system value="urn:ietf:rfc:3986"/>
                            <value value="urn:uuid:a60ec70c-3089-47b2-84bc-41f0d26f6ff1"/>
                        </valueIdentifier>
                    </extension>
                    <extension url="externalDocumentId">
                        <valueIdentifier>
                            <system value="urn:ietf:rfc:3986"/>
                            <value value="urn:uuid:e2d4c1a8-2fc0-4636-95a6-c06d19c505cb"/>
                        </valueIdentifier>
                    </extension>
                </extension>
                <identifier>
                    <system value="urn:ietf:rfc:3986"/>
                    <value value="urn:uuid:a60ec70c-3089-47b2-84bc-41f0d26f6ff1"/>
                </identifier>
                <status value="final"/>
                <code>
                    <coding>
                        <system value="urn:oid:1.3.6.1.4.1.19376.1.9.2.1"/>
                        <code value="COMMENT"/>
                    </coding>
                </code>
                <subject>
                    <reference value="Patient/TrongSangNeffWingeier"/>
                </subject>
                <effectiveDateTime value="2019-02-15T11:00:00+01:00"/>
                <performer>
                    <reference value="PractitionerRole/Pharmacy"/>
                </performer>
                <note>
                    <text value="la patiente n’a pas pris le médicament car pas nécessaire, le Voltarène émulgel a fait son effet"/>
                </note>
            </Observation>
        </resource>
    </entry>

</Bundle>
